rt,response,trial_type,trial_index,time_elapsed,internal_node_id,run_id,condition,recorded_at,source_code_version,ip,user_agent,device,browser,browser_version,platform,platform_version,referer,accept_language,ID,prolific_id,success,timeout,failed_images,failed_audio,failed_video,stimulus,trial_category,question_order,slider_start,stimulus_name
3203,"{""prolific_id"":""5f8c5938b9fa883a8a59107f""}",survey-text,0,3215,0.0-0.0,1,1,2024-07-22 20:20:40,866eb5410fc55685cfd7219525660524,73.45.14.235,"Mozilla/5.0 (Windows NT 10.0; Win64; x64) AppleWebKit/537.36 (KHTML, like Gecko) Chrome/109.0.0.0 Safari/537.36",WebKit,Chrome,109.0.0.0,Windows,10.0,https://app.prolific.com/,"en-US,en;q=0.9",wphde3w8l,5f8c5938b9fa883a8a59107f,,,,,,,,,,
,,preload,1,4809,0.0-1.0,1,1,2024-07-22 20:20:40,866eb5410fc55685cfd7219525660524,73.45.14.235,"Mozilla/5.0 (Windows NT 10.0; Win64; x64) AppleWebKit/537.36 (KHTML, like Gecko) Chrome/109.0.0.0 Safari/537.36",WebKit,Chrome,109.0.0.0,Windows,10.0,https://app.prolific.com/,"en-US,en;q=0.9",wphde3w8l,5f8c5938b9fa883a8a59107f,true,false,[],[],[],,,,,
1652, ,html-keyboard-response,2,6462,0.0-2.0,1,1,2024-07-22 20:20:40,866eb5410fc55685cfd7219525660524,73.45.14.235,"Mozilla/5.0 (Windows NT 10.0; Win64; x64) AppleWebKit/537.36 (KHTML, like Gecko) Chrome/109.0.0.0 Safari/537.36",WebKit,Chrome,109.0.0.0,Windows,10.0,https://app.prolific.com/,"en-US,en;q=0.9",wphde3w8l,5f8c5938b9fa883a8a59107f,,,,,,"<p style=""text-align:center;width:700px;""> Welcome to the experiment! This study takes most people around 10 minutes to complete. Please complete it in one sitting.</p>",,,,
2219,y,html-keyboard-response,3,8682,0.0-3.0,1,1,2024-07-22 20:20:40,866eb5410fc55685cfd7219525660524,73.45.14.235,"Mozilla/5.0 (Windows NT 10.0; Win64; x64) AppleWebKit/537.36 (KHTML, like Gecko) Chrome/109.0.0.0 Safari/537.36",WebKit,Chrome,109.0.0.0,Windows,10.0,https://app.prolific.com/,"en-US,en;q=0.9",wphde3w8l,5f8c5938b9fa883a8a59107f,,,,,,"<p style = ""font-size:16px;"">MIT Computational Cognitive Science Lab</p><h4>Press the 'y' key to consent.</h4><div style = ""background-color:#f2f2f2;""><h3>Informed Consent Form</h3><div style=""text-align:left;width:700px;""><p style = ""font-size:16px;"">In this study, you will be asked to read a set of instructions that describe a particular scenario, and you will then be asked to perform a simple task relating to that scenario. There will also be comprehension and attention checks. Participants who do not answer these checks correctly cannot be approved. In order to get credit for this study, you must read all the questions fully and answer honestly. You may only complete this study once. If you complete this study multiple times, you will be rejected.</p><p style = ""font-size:16px;"">This study is part of a MIT scientific research project. Your decision to complete this study is voluntary. There is no way for us to identify you. The only information we will have, in addition to your responses, is the time at which you completed the survey. The results of the research may be presented at scientific meetings or published in scientific journals. Pressing the ""Y"" key indicates that you are at least 18 years of age, and agree to complete this study voluntarily. Press the ""Y"" key to confirm your agreement and continue.</p></div>",,,,
33333,"{""instructions1"":""destinations in a park""}",survey-text,4,42023,0.0-4.0,1,1,2024-07-22 20:20:40,866eb5410fc55685cfd7219525660524,73.45.14.235,"Mozilla/5.0 (Windows NT 10.0; Win64; x64) AppleWebKit/537.36 (KHTML, like Gecko) Chrome/109.0.0.0 Safari/537.36",WebKit,Chrome,109.0.0.0,Windows,10.0,https://app.prolific.com/,"en-US,en;q=0.9",wphde3w8l,5f8c5938b9fa883a8a59107f,,,,,,,instructions,,,
35794,"{""instructions2"":""Yes""}",survey-text,5,77824,0.0-5.0,1,1,2024-07-22 20:20:40,866eb5410fc55685cfd7219525660524,73.45.14.235,"Mozilla/5.0 (Windows NT 10.0; Win64; x64) AppleWebKit/537.36 (KHTML, like Gecko) Chrome/109.0.0.0 Safari/537.36",WebKit,Chrome,109.0.0.0,Windows,10.0,https://app.prolific.com/,"en-US,en;q=0.9",wphde3w8l,5f8c5938b9fa883a8a59107f,,,,,,,instructions,,,
25330,"{""map_attention"":""A person traveling through the park"",""squares_attention"":""Two terrains (grass and sidewalk) and three destinations (urgent care, bus stop, coffee shop)"",""answer_attention"":""Based on your own best judgment based on the map that you see, as well as your <i>own</i> common sense intuitions about towns and these kinds of destinations in general.""}",survey-multi-choice,6,103165,0.0-6.0,1,1,2024-07-22 20:20:40,866eb5410fc55685cfd7219525660524,73.45.14.235,"Mozilla/5.0 (Windows NT 10.0; Win64; x64) AppleWebKit/537.36 (KHTML, like Gecko) Chrome/109.0.0.0 Safari/537.36",WebKit,Chrome,109.0.0.0,Windows,10.0,https://app.prolific.com/,"en-US,en;q=0.9",wphde3w8l,5f8c5938b9fa883a8a59107f,,,,,,,,"[0,1,2]",,
9181,51,html-slider-response,7,112355,0.0-7.0,1,1,2024-07-22 20:20:40,866eb5410fc55685cfd7219525660524,73.45.14.235,"Mozilla/5.0 (Windows NT 10.0; Win64; x64) AppleWebKit/537.36 (KHTML, like Gecko) Chrome/109.0.0.0 Safari/537.36",WebKit,Chrome,109.0.0.0,Windows,10.0,https://app.prolific.com/,"en-US,en;q=0.9",wphde3w8l,5f8c5938b9fa883a8a59107f,,,,,,<div style='display:flex; justify-content:center; align-items:center;'><img src='img/sign.png' style='width:140px; height:auto; margin-right:10px;' /><img src='img/map1_bus_grass_wandering.png' style='width:460px; height:auto;' /></div>,image_trial,,50,img/map1_bus_grass_wandering.png
4846,100,html-slider-response,8,117204,0.0-8.0,1,1,2024-07-22 20:20:40,866eb5410fc55685cfd7219525660524,73.45.14.235,"Mozilla/5.0 (Windows NT 10.0; Win64; x64) AppleWebKit/537.36 (KHTML, like Gecko) Chrome/109.0.0.0 Safari/537.36",WebKit,Chrome,109.0.0.0,Windows,10.0,https://app.prolific.com/,"en-US,en;q=0.9",wphde3w8l,5f8c5938b9fa883a8a59107f,,,,,,<div style='display:flex; justify-content:center; align-items:center;'><img src='img/sign.png' style='width:140px; height:auto; margin-right:10px;' /><img src='img/map3_bus_sidewalk_shortest.png' style='width:460px; height:auto;' /></div>,image_trial,,50,img/map3_bus_sidewalk_shortest.png
9542,48,html-slider-response,9,126748,0.0-9.0,1,1,2024-07-22 20:20:40,866eb5410fc55685cfd7219525660524,73.45.14.235,"Mozilla/5.0 (Windows NT 10.0; Win64; x64) AppleWebKit/537.36 (KHTML, like Gecko) Chrome/109.0.0.0 Safari/537.36",WebKit,Chrome,109.0.0.0,Windows,10.0,https://app.prolific.com/,"en-US,en;q=0.9",wphde3w8l,5f8c5938b9fa883a8a59107f,,,,,,<div style='display:flex; justify-content:center; align-items:center;'><img src='img/sign.png' style='width:140px; height:auto; margin-right:10px;' /><img src='img/map3_coffee_grass_wandering.png' style='width:460px; height:auto;' /></div>,image_trial,,50,img/map3_coffee_grass_wandering.png
4453,100,html-slider-response,10,131203,0.0-10.0,1,1,2024-07-22 20:20:40,866eb5410fc55685cfd7219525660524,73.45.14.235,"Mozilla/5.0 (Windows NT 10.0; Win64; x64) AppleWebKit/537.36 (KHTML, like Gecko) Chrome/109.0.0.0 Safari/537.36",WebKit,Chrome,109.0.0.0,Windows,10.0,https://app.prolific.com/,"en-US,en;q=0.9",wphde3w8l,5f8c5938b9fa883a8a59107f,,,,,,<div style='display:flex; justify-content:center; align-items:center;'><img src='img/sign.png' style='width:140px; height:auto; margin-right:10px;' /><img src='img/map2_bus_sidewalk_shortest.png' style='width:460px; height:auto;' /></div>,image_trial,,50,img/map2_bus_sidewalk_shortest.png
6246,51,html-slider-response,11,137451,0.0-11.0,1,1,2024-07-22 20:20:40,866eb5410fc55685cfd7219525660524,73.45.14.235,"Mozilla/5.0 (Windows NT 10.0; Win64; x64) AppleWebKit/537.36 (KHTML, like Gecko) Chrome/109.0.0.0 Safari/537.36",WebKit,Chrome,109.0.0.0,Windows,10.0,https://app.prolific.com/,"en-US,en;q=0.9",wphde3w8l,5f8c5938b9fa883a8a59107f,,,,,,<div style='display:flex; justify-content:center; align-items:center;'><img src='img/sign.png' style='width:140px; height:auto; margin-right:10px;' /><img src='img/map3_hospital_grass_wandering.png' style='width:460px; height:auto;' /></div>,image_trial,,50,img/map3_hospital_grass_wandering.png
6189,69,html-slider-response,12,143643,0.0-12.0,1,1,2024-07-22 20:20:40,866eb5410fc55685cfd7219525660524,73.45.14.235,"Mozilla/5.0 (Windows NT 10.0; Win64; x64) AppleWebKit/537.36 (KHTML, like Gecko) Chrome/109.0.0.0 Safari/537.36",WebKit,Chrome,109.0.0.0,Windows,10.0,https://app.prolific.com/,"en-US,en;q=0.9",wphde3w8l,5f8c5938b9fa883a8a59107f,,,,,,<div style='display:flex; justify-content:center; align-items:center;'><img src='img/sign.png' style='width:140px; height:auto; margin-right:10px;' /><img src='img/map1_coffee_grass_shortest.png' style='width:460px; height:auto;' /></div>,image_trial,,50,img/map1_coffee_grass_shortest.png
5206,100,html-slider-response,13,148851,0.0-13.0,1,1,2024-07-22 20:20:40,866eb5410fc55685cfd7219525660524,73.45.14.235,"Mozilla/5.0 (Windows NT 10.0; Win64; x64) AppleWebKit/537.36 (KHTML, like Gecko) Chrome/109.0.0.0 Safari/537.36",WebKit,Chrome,109.0.0.0,Windows,10.0,https://app.prolific.com/,"en-US,en;q=0.9",wphde3w8l,5f8c5938b9fa883a8a59107f,,,,,,<div style='display:flex; justify-content:center; align-items:center;'><img src='img/sign.png' style='width:140px; height:auto; margin-right:10px;' /><img src='img/map1_coffee_sidewalk_shortest.png' style='width:460px; height:auto;' /></div>,image_trial,,50,img/map1_coffee_sidewalk_shortest.png
5166,100,html-slider-response,14,154019,0.0-14.0,1,1,2024-07-22 20:20:40,866eb5410fc55685cfd7219525660524,73.45.14.235,"Mozilla/5.0 (Windows NT 10.0; Win64; x64) AppleWebKit/537.36 (KHTML, like Gecko) Chrome/109.0.0.0 Safari/537.36",WebKit,Chrome,109.0.0.0,Windows,10.0,https://app.prolific.com/,"en-US,en;q=0.9",wphde3w8l,5f8c5938b9fa883a8a59107f,,,,,,<div style='display:flex; justify-content:center; align-items:center;'><img src='img/sign.png' style='width:140px; height:auto; margin-right:10px;' /><img src='img/map2_hospital_sidewalk_shortest.png' style='width:460px; height:auto;' /></div>,image_trial,,50,img/map2_hospital_sidewalk_shortest.png
11701,51,html-slider-response,15,165724,0.0-15.0,1,1,2024-07-22 20:20:40,866eb5410fc55685cfd7219525660524,73.45.14.235,"Mozilla/5.0 (Windows NT 10.0; Win64; x64) AppleWebKit/537.36 (KHTML, like Gecko) Chrome/109.0.0.0 Safari/537.36",WebKit,Chrome,109.0.0.0,Windows,10.0,https://app.prolific.com/,"en-US,en;q=0.9",wphde3w8l,5f8c5938b9fa883a8a59107f,,,,,,<div style='display:flex; justify-content:center; align-items:center;'><img src='img/sign.png' style='width:140px; height:auto; margin-right:10px;' /><img src='img/map2_bus_grass_shortest.png' style='width:460px; height:auto;' /></div>,image_trial,,50,img/map2_bus_grass_shortest.png
3957,54,html-slider-response,16,169683,0.0-16.0,1,1,2024-07-22 20:20:40,866eb5410fc55685cfd7219525660524,73.45.14.235,"Mozilla/5.0 (Windows NT 10.0; Win64; x64) AppleWebKit/537.36 (KHTML, like Gecko) Chrome/109.0.0.0 Safari/537.36",WebKit,Chrome,109.0.0.0,Windows,10.0,https://app.prolific.com/,"en-US,en;q=0.9",wphde3w8l,5f8c5938b9fa883a8a59107f,,,,,,<div style='display:flex; justify-content:center; align-items:center;'><img src='img/sign.png' style='width:140px; height:auto; margin-right:10px;' /><img src='img/map2_coffee_grass_shortest.png' style='width:460px; height:auto;' /></div>,image_trial,,50,img/map2_coffee_grass_shortest.png
6815,47,html-slider-response,17,176500,0.0-17.0,1,1,2024-07-22 20:20:40,866eb5410fc55685cfd7219525660524,73.45.14.235,"Mozilla/5.0 (Windows NT 10.0; Win64; x64) AppleWebKit/537.36 (KHTML, like Gecko) Chrome/109.0.0.0 Safari/537.36",WebKit,Chrome,109.0.0.0,Windows,10.0,https://app.prolific.com/,"en-US,en;q=0.9",wphde3w8l,5f8c5938b9fa883a8a59107f,,,,,,<div style='display:flex; justify-content:center; align-items:center;'><img src='img/sign.png' style='width:140px; height:auto; margin-right:10px;' /><img src='img/map3_coffee_grass_shortest.png' style='width:460px; height:auto;' /></div>,image_trial,,50,img/map3_coffee_grass_shortest.png
4541,71,html-slider-response,18,181044,0.0-18.0,1,1,2024-07-22 20:20:40,866eb5410fc55685cfd7219525660524,73.45.14.235,"Mozilla/5.0 (Windows NT 10.0; Win64; x64) AppleWebKit/537.36 (KHTML, like Gecko) Chrome/109.0.0.0 Safari/537.36",WebKit,Chrome,109.0.0.0,Windows,10.0,https://app.prolific.com/,"en-US,en;q=0.9",wphde3w8l,5f8c5938b9fa883a8a59107f,,,,,,<div style='display:flex; justify-content:center; align-items:center;'><img src='img/sign.png' style='width:140px; height:auto; margin-right:10px;' /><img src='img/map2_hospital_grass_shortest.png' style='width:460px; height:auto;' /></div>,image_trial,,50,img/map2_hospital_grass_shortest.png
3741,100,html-slider-response,19,184788,0.0-19.0,1,1,2024-07-22 20:20:40,866eb5410fc55685cfd7219525660524,73.45.14.235,"Mozilla/5.0 (Windows NT 10.0; Win64; x64) AppleWebKit/537.36 (KHTML, like Gecko) Chrome/109.0.0.0 Safari/537.36",WebKit,Chrome,109.0.0.0,Windows,10.0,https://app.prolific.com/,"en-US,en;q=0.9",wphde3w8l,5f8c5938b9fa883a8a59107f,,,,,,<div style='display:flex; justify-content:center; align-items:center;'><img src='img/sign.png' style='width:140px; height:auto; margin-right:10px;' /><img src='img/map2_coffee_sidewalk_shortest.png' style='width:460px; height:auto;' /></div>,image_trial,,50,img/map2_coffee_sidewalk_shortest.png
4134,49,html-slider-response,20,188924,0.0-20.0,1,1,2024-07-22 20:20:40,866eb5410fc55685cfd7219525660524,73.45.14.235,"Mozilla/5.0 (Windows NT 10.0; Win64; x64) AppleWebKit/537.36 (KHTML, like Gecko) Chrome/109.0.0.0 Safari/537.36",WebKit,Chrome,109.0.0.0,Windows,10.0,https://app.prolific.com/,"en-US,en;q=0.9",wphde3w8l,5f8c5938b9fa883a8a59107f,,,,,,<div style='display:flex; justify-content:center; align-items:center;'><img src='img/sign.png' style='width:140px; height:auto; margin-right:10px;' /><img src='img/map1_coffee_grass_wandering.png' style='width:460px; height:auto;' /></div>,image_trial,,50,img/map1_coffee_grass_wandering.png
5133,44,html-slider-response,21,194059,0.0-21.0,1,1,2024-07-22 20:20:40,866eb5410fc55685cfd7219525660524,73.45.14.235,"Mozilla/5.0 (Windows NT 10.0; Win64; x64) AppleWebKit/537.36 (KHTML, like Gecko) Chrome/109.0.0.0 Safari/537.36",WebKit,Chrome,109.0.0.0,Windows,10.0,https://app.prolific.com/,"en-US,en;q=0.9",wphde3w8l,5f8c5938b9fa883a8a59107f,,,,,,<div style='display:flex; justify-content:center; align-items:center;'><img src='img/sign.png' style='width:140px; height:auto; margin-right:10px;' /><img src='img/map2_coffee_grass_wandering.png' style='width:460px; height:auto;' /></div>,image_trial,,50,img/map2_coffee_grass_wandering.png
7021,75,html-slider-response,22,201084,0.0-22.0,1,1,2024-07-22 20:20:40,866eb5410fc55685cfd7219525660524,73.45.14.235,"Mozilla/5.0 (Windows NT 10.0; Win64; x64) AppleWebKit/537.36 (KHTML, like Gecko) Chrome/109.0.0.0 Safari/537.36",WebKit,Chrome,109.0.0.0,Windows,10.0,https://app.prolific.com/,"en-US,en;q=0.9",wphde3w8l,5f8c5938b9fa883a8a59107f,,,,,,<div style='display:flex; justify-content:center; align-items:center;'><img src='img/sign.png' style='width:140px; height:auto; margin-right:10px;' /><img src='img/map3_hospital_grass_shortest.png' style='width:460px; height:auto;' /></div>,image_trial,,50,img/map3_hospital_grass_shortest.png
5357,49,html-slider-response,23,206444,0.0-23.0,1,1,2024-07-22 20:20:40,866eb5410fc55685cfd7219525660524,73.45.14.235,"Mozilla/5.0 (Windows NT 10.0; Win64; x64) AppleWebKit/537.36 (KHTML, like Gecko) Chrome/109.0.0.0 Safari/537.36",WebKit,Chrome,109.0.0.0,Windows,10.0,https://app.prolific.com/,"en-US,en;q=0.9",wphde3w8l,5f8c5938b9fa883a8a59107f,,,,,,<div style='display:flex; justify-content:center; align-items:center;'><img src='img/sign.png' style='width:140px; height:auto; margin-right:10px;' /><img src='img/map1_hospital_grass_wandering.png' style='width:460px; height:auto;' /></div>,image_trial,,50,img/map1_hospital_grass_wandering.png
5853,100,html-slider-response,24,212300,0.0-24.0,1,1,2024-07-22 20:20:40,866eb5410fc55685cfd7219525660524,73.45.14.235,"Mozilla/5.0 (Windows NT 10.0; Win64; x64) AppleWebKit/537.36 (KHTML, like Gecko) Chrome/109.0.0.0 Safari/537.36",WebKit,Chrome,109.0.0.0,Windows,10.0,https://app.prolific.com/,"en-US,en;q=0.9",wphde3w8l,5f8c5938b9fa883a8a59107f,,,,,,<div style='display:flex; justify-content:center; align-items:center;'><img src='img/sign.png' style='width:140px; height:auto; margin-right:10px;' /><img src='img/map1_hospital_sidewalk_shortest.png' style='width:460px; height:auto;' /></div>,image_trial,,50,img/map1_hospital_sidewalk_shortest.png
4253,100,html-slider-response,25,216555,0.0-25.0,1,1,2024-07-22 20:20:40,866eb5410fc55685cfd7219525660524,73.45.14.235,"Mozilla/5.0 (Windows NT 10.0; Win64; x64) AppleWebKit/537.36 (KHTML, like Gecko) Chrome/109.0.0.0 Safari/537.36",WebKit,Chrome,109.0.0.0,Windows,10.0,https://app.prolific.com/,"en-US,en;q=0.9",wphde3w8l,5f8c5938b9fa883a8a59107f,,,,,,<div style='display:flex; justify-content:center; align-items:center;'><img src='img/sign.png' style='width:140px; height:auto; margin-right:10px;' /><img src='img/map3_hospital_sidewalk_shortest.png' style='width:460px; height:auto;' /></div>,image_trial,,50,img/map3_hospital_sidewalk_shortest.png
3677,51,html-slider-response,26,220235,0.0-26.0,1,1,2024-07-22 20:20:40,866eb5410fc55685cfd7219525660524,73.45.14.235,"Mozilla/5.0 (Windows NT 10.0; Win64; x64) AppleWebKit/537.36 (KHTML, like Gecko) Chrome/109.0.0.0 Safari/537.36",WebKit,Chrome,109.0.0.0,Windows,10.0,https://app.prolific.com/,"en-US,en;q=0.9",wphde3w8l,5f8c5938b9fa883a8a59107f,,,,,,<div style='display:flex; justify-content:center; align-items:center;'><img src='img/sign.png' style='width:140px; height:auto; margin-right:10px;' /><img src='img/map3_bus_grass_wandering.png' style='width:460px; height:auto;' /></div>,image_trial,,50,img/map3_bus_grass_wandering.png
4900,45,html-slider-response,27,225139,0.0-27.0,1,1,2024-07-22 20:20:40,866eb5410fc55685cfd7219525660524,73.45.14.235,"Mozilla/5.0 (Windows NT 10.0; Win64; x64) AppleWebKit/537.36 (KHTML, like Gecko) Chrome/109.0.0.0 Safari/537.36",WebKit,Chrome,109.0.0.0,Windows,10.0,https://app.prolific.com/,"en-US,en;q=0.9",wphde3w8l,5f8c5938b9fa883a8a59107f,,,,,,<div style='display:flex; justify-content:center; align-items:center;'><img src='img/sign.png' style='width:140px; height:auto; margin-right:10px;' /><img src='img/map2_hospital_grass_wandering.png' style='width:460px; height:auto;' /></div>,image_trial,,50,img/map2_hospital_grass_wandering.png
4740,44,html-slider-response,28,229883,0.0-28.0,1,1,2024-07-22 20:20:40,866eb5410fc55685cfd7219525660524,73.45.14.235,"Mozilla/5.0 (Windows NT 10.0; Win64; x64) AppleWebKit/537.36 (KHTML, like Gecko) Chrome/109.0.0.0 Safari/537.36",WebKit,Chrome,109.0.0.0,Windows,10.0,https://app.prolific.com/,"en-US,en;q=0.9",wphde3w8l,5f8c5938b9fa883a8a59107f,,,,,,<div style='display:flex; justify-content:center; align-items:center;'><img src='img/sign.png' style='width:140px; height:auto; margin-right:10px;' /><img src='img/map2_bus_grass_wandering.png' style='width:460px; height:auto;' /></div>,image_trial,,50,img/map2_bus_grass_wandering.png
4277,40,html-slider-response,29,234164,0.0-29.0,1,1,2024-07-22 20:20:40,866eb5410fc55685cfd7219525660524,73.45.14.235,"Mozilla/5.0 (Windows NT 10.0; Win64; x64) AppleWebKit/537.36 (KHTML, like Gecko) Chrome/109.0.0.0 Safari/537.36",WebKit,Chrome,109.0.0.0,Windows,10.0,https://app.prolific.com/,"en-US,en;q=0.9",wphde3w8l,5f8c5938b9fa883a8a59107f,,,,,,<div style='display:flex; justify-content:center; align-items:center;'><img src='img/sign.png' style='width:140px; height:auto; margin-right:10px;' /><img src='img/map3_bus_grass_shortest.png' style='width:460px; height:auto;' /></div>,image_trial,,50,img/map3_bus_grass_shortest.png
6716,88,html-slider-response,30,240884,0.0-30.0,1,1,2024-07-22 20:20:40,866eb5410fc55685cfd7219525660524,73.45.14.235,"Mozilla/5.0 (Windows NT 10.0; Win64; x64) AppleWebKit/537.36 (KHTML, like Gecko) Chrome/109.0.0.0 Safari/537.36",WebKit,Chrome,109.0.0.0,Windows,10.0,https://app.prolific.com/,"en-US,en;q=0.9",wphde3w8l,5f8c5938b9fa883a8a59107f,,,,,,<div style='display:flex; justify-content:center; align-items:center;'><img src='img/sign.png' style='width:140px; height:auto; margin-right:10px;' /><img src='img/map1_hospital_grass_shortest.png' style='width:460px; height:auto;' /></div>,image_trial,,50,img/map1_hospital_grass_shortest.png
3045,100,html-slider-response,31,243932,0.0-31.0,1,1,2024-07-22 20:20:40,866eb5410fc55685cfd7219525660524,73.45.14.235,"Mozilla/5.0 (Windows NT 10.0; Win64; x64) AppleWebKit/537.36 (KHTML, like Gecko) Chrome/109.0.0.0 Safari/537.36",WebKit,Chrome,109.0.0.0,Windows,10.0,https://app.prolific.com/,"en-US,en;q=0.9",wphde3w8l,5f8c5938b9fa883a8a59107f,,,,,,<div style='display:flex; justify-content:center; align-items:center;'><img src='img/sign.png' style='width:140px; height:auto; margin-right:10px;' /><img src='img/map1_bus_sidewalk_shortest.png' style='width:460px; height:auto;' /></div>,image_trial,,50,img/map1_bus_sidewalk_shortest.png
3597,44,html-slider-response,32,247531,0.0-32.0,1,1,2024-07-22 20:20:40,866eb5410fc55685cfd7219525660524,73.45.14.235,"Mozilla/5.0 (Windows NT 10.0; Win64; x64) AppleWebKit/537.36 (KHTML, like Gecko) Chrome/109.0.0.0 Safari/537.36",WebKit,Chrome,109.0.0.0,Windows,10.0,https://app.prolific.com/,"en-US,en;q=0.9",wphde3w8l,5f8c5938b9fa883a8a59107f,,,,,,<div style='display:flex; justify-content:center; align-items:center;'><img src='img/sign.png' style='width:140px; height:auto; margin-right:10px;' /><img src='img/map1_bus_grass_shortest.png' style='width:460px; height:auto;' /></div>,image_trial,,50,img/map1_bus_grass_shortest.png
3845,100,html-slider-response,33,251380,0.0-33.0,1,1,2024-07-22 20:20:40,866eb5410fc55685cfd7219525660524,73.45.14.235,"Mozilla/5.0 (Windows NT 10.0; Win64; x64) AppleWebKit/537.36 (KHTML, like Gecko) Chrome/109.0.0.0 Safari/537.36",WebKit,Chrome,109.0.0.0,Windows,10.0,https://app.prolific.com/,"en-US,en;q=0.9",wphde3w8l,5f8c5938b9fa883a8a59107f,,,,,,<div style='display:flex; justify-content:center; align-items:center;'><img src='img/sign.png' style='width:140px; height:auto; margin-right:10px;' /><img src='img/map3_coffee_sidewalk_shortest.png' style='width:460px; height:auto;' /></div>,image_trial,,50,img/map3_coffee_sidewalk_shortest.png
9781,"[{""name"":""understand"",""value"":""yes""},{""name"":""problems"",""value"":""no""},{""name"":""age"",""value"":""26""},{""name"":""gender"",""value"":""female""},{""name"":""comments"",""value"":""""}]",survey-html-form,34,261164,0.0-34.0,1,1,2024-07-22 20:20:40,866eb5410fc55685cfd7219525660524,73.45.14.235,"Mozilla/5.0 (Windows NT 10.0; Win64; x64) AppleWebKit/537.36 (KHTML, like Gecko) Chrome/109.0.0.0 Safari/537.36",WebKit,Chrome,109.0.0.0,Windows,10.0,https://app.prolific.com/,"en-US,en;q=0.9",wphde3w8l,5f8c5938b9fa883a8a59107f,,,,,,,debrief,,,
10390,"{""Q0"":""wphde3w8l""}",survey-text,35,271564,0.0-35.0,1,1,2024-07-22 20:20:40,866eb5410fc55685cfd7219525660524,73.45.14.235,"Mozilla/5.0 (Windows NT 10.0; Win64; x64) AppleWebKit/537.36 (KHTML, like Gecko) Chrome/109.0.0.0 Safari/537.36",WebKit,Chrome,109.0.0.0,Windows,10.0,https://app.prolific.com/,"en-US,en;q=0.9",wphde3w8l,5f8c5938b9fa883a8a59107f,,,,,,,,,,
4348,"{""prolific_id"":""667b5427190429e5c81518f2""}",survey-text,0,4362,0.0-0.0,12,1,2024-07-22 20:28:11,866eb5410fc55685cfd7219525660524,99.74.179.6,"Mozilla/5.0 (Macintosh; Intel Mac OS X 10_15_7) AppleWebKit/537.36 (KHTML, like Gecko) Chrome/126.0.0.0 Safari/537.36",Macintosh,Chrome,126.0.0.0,OS X,10_15_7,https://app.prolific.com/,"en-US,en;q=0.9",jxgsc4z0o,667b5427190429e5c81518f2,,,,,,,,,,
,,preload,1,5347,0.0-1.0,12,1,2024-07-22 20:28:11,866eb5410fc55685cfd7219525660524,99.74.179.6,"Mozilla/5.0 (Macintosh; Intel Mac OS X 10_15_7) AppleWebKit/537.36 (KHTML, like Gecko) Chrome/126.0.0.0 Safari/537.36",Macintosh,Chrome,126.0.0.0,OS X,10_15_7,https://app.prolific.com/,"en-US,en;q=0.9",jxgsc4z0o,667b5427190429e5c81518f2,true,false,[],[],[],,,,,
1501, ,html-keyboard-response,2,6849,0.0-2.0,12,1,2024-07-22 20:28:11,866eb5410fc55685cfd7219525660524,99.74.179.6,"Mozilla/5.0 (Macintosh; Intel Mac OS X 10_15_7) AppleWebKit/537.36 (KHTML, like Gecko) Chrome/126.0.0.0 Safari/537.36",Macintosh,Chrome,126.0.0.0,OS X,10_15_7,https://app.prolific.com/,"en-US,en;q=0.9",jxgsc4z0o,667b5427190429e5c81518f2,,,,,,"<p style=""text-align:center;width:700px;""> Welcome to the experiment! This study takes most people around 10 minutes to complete. Please complete it in one sitting.</p>",,,,
3209,y,html-keyboard-response,3,10059,0.0-3.0,12,1,2024-07-22 20:28:11,866eb5410fc55685cfd7219525660524,99.74.179.6,"Mozilla/5.0 (Macintosh; Intel Mac OS X 10_15_7) AppleWebKit/537.36 (KHTML, like Gecko) Chrome/126.0.0.0 Safari/537.36",Macintosh,Chrome,126.0.0.0,OS X,10_15_7,https://app.prolific.com/,"en-US,en;q=0.9",jxgsc4z0o,667b5427190429e5c81518f2,,,,,,"<p style = ""font-size:16px;"">MIT Computational Cognitive Science Lab</p><h4>Press the 'y' key to consent.</h4><div style = ""background-color:#f2f2f2;""><h3>Informed Consent Form</h3><div style=""text-align:left;width:700px;""><p style = ""font-size:16px;"">In this study, you will be asked to read a set of instructions that describe a particular scenario, and you will then be asked to perform a simple task relating to that scenario. There will also be comprehension and attention checks. Participants who do not answer these checks correctly cannot be approved. In order to get credit for this study, you must read all the questions fully and answer honestly. You may only complete this study once. If you complete this study multiple times, you will be rejected.</p><p style = ""font-size:16px;"">This study is part of a MIT scientific research project. Your decision to complete this study is voluntary. There is no way for us to identify you. The only information we will have, in addition to your responses, is the time at which you completed the survey. The results of the research may be presented at scientific meetings or published in scientific journals. Pressing the ""Y"" key indicates that you are at least 18 years of age, and agree to complete this study voluntarily. Press the ""Y"" key to confirm your agreement and continue.</p></div>",,,,
37035,"{""instructions1"":""common destinations that people in the town visit""}",survey-text,4,47102,0.0-4.0,12,1,2024-07-22 20:28:11,866eb5410fc55685cfd7219525660524,99.74.179.6,"Mozilla/5.0 (Macintosh; Intel Mac OS X 10_15_7) AppleWebKit/537.36 (KHTML, like Gecko) Chrome/126.0.0.0 Safari/537.36",Macintosh,Chrome,126.0.0.0,OS X,10_15_7,https://app.prolific.com/,"en-US,en;q=0.9",jxgsc4z0o,667b5427190429e5c81518f2,,,,,,,instructions,,,
21852,"{""instructions2"":""yes""}",survey-text,5,68957,0.0-5.0,12,1,2024-07-22 20:28:11,866eb5410fc55685cfd7219525660524,99.74.179.6,"Mozilla/5.0 (Macintosh; Intel Mac OS X 10_15_7) AppleWebKit/537.36 (KHTML, like Gecko) Chrome/126.0.0.0 Safari/537.36",Macintosh,Chrome,126.0.0.0,OS X,10_15_7,https://app.prolific.com/,"en-US,en;q=0.9",jxgsc4z0o,667b5427190429e5c81518f2,,,,,,,instructions,,,
25204,"{""map_attention"":""Maps showing a small city, park, and destinations"",""squares_attention"":""Two terrains (grass and sidewalk) and three destinations (urgent care, bus stop, coffee shop)"",""answer_attention"":""Based on your own best judgment based on the map that you see, as well as your <i>own</i> common sense intuitions about towns and these kinds of destinations in general.""}",survey-multi-choice,6,94163,0.0-6.0,12,1,2024-07-22 20:28:11,866eb5410fc55685cfd7219525660524,99.74.179.6,"Mozilla/5.0 (Macintosh; Intel Mac OS X 10_15_7) AppleWebKit/537.36 (KHTML, like Gecko) Chrome/126.0.0.0 Safari/537.36",Macintosh,Chrome,126.0.0.0,OS X,10_15_7,https://app.prolific.com/,"en-US,en;q=0.9",jxgsc4z0o,667b5427190429e5c81518f2,,,,,,,,"[0,1,2]",,
13799,0,html-slider-response,7,107966,0.0-7.0,12,1,2024-07-22 20:28:11,866eb5410fc55685cfd7219525660524,99.74.179.6,"Mozilla/5.0 (Macintosh; Intel Mac OS X 10_15_7) AppleWebKit/537.36 (KHTML, like Gecko) Chrome/126.0.0.0 Safari/537.36",Macintosh,Chrome,126.0.0.0,OS X,10_15_7,https://app.prolific.com/,"en-US,en;q=0.9",jxgsc4z0o,667b5427190429e5c81518f2,,,,,,<div style='display:flex; justify-content:center; align-items:center;'><img src='img/sign.png' style='width:140px; height:auto; margin-right:10px;' /><img src='img/map1_bus_grass_shortest.png' style='width:460px; height:auto;' /></div>,image_trial,,50,img/map1_bus_grass_shortest.png
6300,0,html-slider-response,8,114267,0.0-8.0,12,1,2024-07-22 20:28:11,866eb5410fc55685cfd7219525660524,99.74.179.6,"Mozilla/5.0 (Macintosh; Intel Mac OS X 10_15_7) AppleWebKit/537.36 (KHTML, like Gecko) Chrome/126.0.0.0 Safari/537.36",Macintosh,Chrome,126.0.0.0,OS X,10_15_7,https://app.prolific.com/,"en-US,en;q=0.9",jxgsc4z0o,667b5427190429e5c81518f2,,,,,,<div style='display:flex; justify-content:center; align-items:center;'><img src='img/sign.png' style='width:140px; height:auto; margin-right:10px;' /><img src='img/map1_coffee_grass_shortest.png' style='width:460px; height:auto;' /></div>,image_trial,,50,img/map1_coffee_grass_shortest.png
3382,0,html-slider-response,9,117651,0.0-9.0,12,1,2024-07-22 20:28:11,866eb5410fc55685cfd7219525660524,99.74.179.6,"Mozilla/5.0 (Macintosh; Intel Mac OS X 10_15_7) AppleWebKit/537.36 (KHTML, like Gecko) Chrome/126.0.0.0 Safari/537.36",Macintosh,Chrome,126.0.0.0,OS X,10_15_7,https://app.prolific.com/,"en-US,en;q=0.9",jxgsc4z0o,667b5427190429e5c81518f2,,,,,,<div style='display:flex; justify-content:center; align-items:center;'><img src='img/sign.png' style='width:140px; height:auto; margin-right:10px;' /><img src='img/map1_coffee_sidewalk_shortest.png' style='width:460px; height:auto;' /></div>,image_trial,,50,img/map1_coffee_sidewalk_shortest.png
3199,0,html-slider-response,10,120851,0.0-10.0,12,1,2024-07-22 20:28:11,866eb5410fc55685cfd7219525660524,99.74.179.6,"Mozilla/5.0 (Macintosh; Intel Mac OS X 10_15_7) AppleWebKit/537.36 (KHTML, like Gecko) Chrome/126.0.0.0 Safari/537.36",Macintosh,Chrome,126.0.0.0,OS X,10_15_7,https://app.prolific.com/,"en-US,en;q=0.9",jxgsc4z0o,667b5427190429e5c81518f2,,,,,,<div style='display:flex; justify-content:center; align-items:center;'><img src='img/sign.png' style='width:140px; height:auto; margin-right:10px;' /><img src='img/map3_coffee_grass_shortest.png' style='width:460px; height:auto;' /></div>,image_trial,,50,img/map3_coffee_grass_shortest.png
3666,0,html-slider-response,11,124518,0.0-11.0,12,1,2024-07-22 20:28:11,866eb5410fc55685cfd7219525660524,99.74.179.6,"Mozilla/5.0 (Macintosh; Intel Mac OS X 10_15_7) AppleWebKit/537.36 (KHTML, like Gecko) Chrome/126.0.0.0 Safari/537.36",Macintosh,Chrome,126.0.0.0,OS X,10_15_7,https://app.prolific.com/,"en-US,en;q=0.9",jxgsc4z0o,667b5427190429e5c81518f2,,,,,,<div style='display:flex; justify-content:center; align-items:center;'><img src='img/sign.png' style='width:140px; height:auto; margin-right:10px;' /><img src='img/map2_bus_grass_wandering.png' style='width:460px; height:auto;' /></div>,image_trial,,50,img/map2_bus_grass_wandering.png
3266,0,html-slider-response,12,127786,0.0-12.0,12,1,2024-07-22 20:28:11,866eb5410fc55685cfd7219525660524,99.74.179.6,"Mozilla/5.0 (Macintosh; Intel Mac OS X 10_15_7) AppleWebKit/537.36 (KHTML, like Gecko) Chrome/126.0.0.0 Safari/537.36",Macintosh,Chrome,126.0.0.0,OS X,10_15_7,https://app.prolific.com/,"en-US,en;q=0.9",jxgsc4z0o,667b5427190429e5c81518f2,,,,,,<div style='display:flex; justify-content:center; align-items:center;'><img src='img/sign.png' style='width:140px; height:auto; margin-right:10px;' /><img src='img/map3_bus_grass_wandering.png' style='width:460px; height:auto;' /></div>,image_trial,,50,img/map3_bus_grass_wandering.png
5416,0,html-slider-response,13,133200,0.0-13.0,12,1,2024-07-22 20:28:11,866eb5410fc55685cfd7219525660524,99.74.179.6,"Mozilla/5.0 (Macintosh; Intel Mac OS X 10_15_7) AppleWebKit/537.36 (KHTML, like Gecko) Chrome/126.0.0.0 Safari/537.36",Macintosh,Chrome,126.0.0.0,OS X,10_15_7,https://app.prolific.com/,"en-US,en;q=0.9",jxgsc4z0o,667b5427190429e5c81518f2,,,,,,<div style='display:flex; justify-content:center; align-items:center;'><img src='img/sign.png' style='width:140px; height:auto; margin-right:10px;' /><img src='img/map1_hospital_sidewalk_shortest.png' style='width:460px; height:auto;' /></div>,image_trial,,50,img/map1_hospital_sidewalk_shortest.png
3483,0,html-slider-response,14,136681,0.0-14.0,12,1,2024-07-22 20:28:11,866eb5410fc55685cfd7219525660524,99.74.179.6,"Mozilla/5.0 (Macintosh; Intel Mac OS X 10_15_7) AppleWebKit/537.36 (KHTML, like Gecko) Chrome/126.0.0.0 Safari/537.36",Macintosh,Chrome,126.0.0.0,OS X,10_15_7,https://app.prolific.com/,"en-US,en;q=0.9",jxgsc4z0o,667b5427190429e5c81518f2,,,,,,<div style='display:flex; justify-content:center; align-items:center;'><img src='img/sign.png' style='width:140px; height:auto; margin-right:10px;' /><img src='img/map2_coffee_sidewalk_shortest.png' style='width:460px; height:auto;' /></div>,image_trial,,50,img/map2_coffee_sidewalk_shortest.png
3182,0,html-slider-response,15,139862,0.0-15.0,12,1,2024-07-22 20:28:11,866eb5410fc55685cfd7219525660524,99.74.179.6,"Mozilla/5.0 (Macintosh; Intel Mac OS X 10_15_7) AppleWebKit/537.36 (KHTML, like Gecko) Chrome/126.0.0.0 Safari/537.36",Macintosh,Chrome,126.0.0.0,OS X,10_15_7,https://app.prolific.com/,"en-US,en;q=0.9",jxgsc4z0o,667b5427190429e5c81518f2,,,,,,<div style='display:flex; justify-content:center; align-items:center;'><img src='img/sign.png' style='width:140px; height:auto; margin-right:10px;' /><img src='img/map2_hospital_grass_shortest.png' style='width:460px; height:auto;' /></div>,image_trial,,50,img/map2_hospital_grass_shortest.png
3883,0,html-slider-response,16,143744,0.0-16.0,12,1,2024-07-22 20:28:11,866eb5410fc55685cfd7219525660524,99.74.179.6,"Mozilla/5.0 (Macintosh; Intel Mac OS X 10_15_7) AppleWebKit/537.36 (KHTML, like Gecko) Chrome/126.0.0.0 Safari/537.36",Macintosh,Chrome,126.0.0.0,OS X,10_15_7,https://app.prolific.com/,"en-US,en;q=0.9",jxgsc4z0o,667b5427190429e5c81518f2,,,,,,<div style='display:flex; justify-content:center; align-items:center;'><img src='img/sign.png' style='width:140px; height:auto; margin-right:10px;' /><img src='img/map3_hospital_sidewalk_shortest.png' style='width:460px; height:auto;' /></div>,image_trial,,50,img/map3_hospital_sidewalk_shortest.png
2916,0,html-slider-response,17,146660,0.0-17.0,12,1,2024-07-22 20:28:11,866eb5410fc55685cfd7219525660524,99.74.179.6,"Mozilla/5.0 (Macintosh; Intel Mac OS X 10_15_7) AppleWebKit/537.36 (KHTML, like Gecko) Chrome/126.0.0.0 Safari/537.36",Macintosh,Chrome,126.0.0.0,OS X,10_15_7,https://app.prolific.com/,"en-US,en;q=0.9",jxgsc4z0o,667b5427190429e5c81518f2,,,,,,<div style='display:flex; justify-content:center; align-items:center;'><img src='img/sign.png' style='width:140px; height:auto; margin-right:10px;' /><img src='img/map1_hospital_grass_shortest.png' style='width:460px; height:auto;' /></div>,image_trial,,50,img/map1_hospital_grass_shortest.png
2699,0,html-slider-response,18,149360,0.0-18.0,12,1,2024-07-22 20:28:11,866eb5410fc55685cfd7219525660524,99.74.179.6,"Mozilla/5.0 (Macintosh; Intel Mac OS X 10_15_7) AppleWebKit/537.36 (KHTML, like Gecko) Chrome/126.0.0.0 Safari/537.36",Macintosh,Chrome,126.0.0.0,OS X,10_15_7,https://app.prolific.com/,"en-US,en;q=0.9",jxgsc4z0o,667b5427190429e5c81518f2,,,,,,<div style='display:flex; justify-content:center; align-items:center;'><img src='img/sign.png' style='width:140px; height:auto; margin-right:10px;' /><img src='img/map3_bus_grass_shortest.png' style='width:460px; height:auto;' /></div>,image_trial,,50,img/map3_bus_grass_shortest.png
2465,0,html-slider-response,19,151825,0.0-19.0,12,1,2024-07-22 20:28:11,866eb5410fc55685cfd7219525660524,99.74.179.6,"Mozilla/5.0 (Macintosh; Intel Mac OS X 10_15_7) AppleWebKit/537.36 (KHTML, like Gecko) Chrome/126.0.0.0 Safari/537.36",Macintosh,Chrome,126.0.0.0,OS X,10_15_7,https://app.prolific.com/,"en-US,en;q=0.9",jxgsc4z0o,667b5427190429e5c81518f2,,,,,,<div style='display:flex; justify-content:center; align-items:center;'><img src='img/sign.png' style='width:140px; height:auto; margin-right:10px;' /><img src='img/map3_hospital_grass_wandering.png' style='width:460px; height:auto;' /></div>,image_trial,,50,img/map3_hospital_grass_wandering.png
9218,0,html-slider-response,20,161042,0.0-20.0,12,1,2024-07-22 20:28:11,866eb5410fc55685cfd7219525660524,99.74.179.6,"Mozilla/5.0 (Macintosh; Intel Mac OS X 10_15_7) AppleWebKit/537.36 (KHTML, like Gecko) Chrome/126.0.0.0 Safari/537.36",Macintosh,Chrome,126.0.0.0,OS X,10_15_7,https://app.prolific.com/,"en-US,en;q=0.9",jxgsc4z0o,667b5427190429e5c81518f2,,,,,,<div style='display:flex; justify-content:center; align-items:center;'><img src='img/sign.png' style='width:140px; height:auto; margin-right:10px;' /><img src='img/map3_bus_sidewalk_shortest.png' style='width:460px; height:auto;' /></div>,image_trial,,50,img/map3_bus_sidewalk_shortest.png
2882,0,html-slider-response,21,163925,0.0-21.0,12,1,2024-07-22 20:28:11,866eb5410fc55685cfd7219525660524,99.74.179.6,"Mozilla/5.0 (Macintosh; Intel Mac OS X 10_15_7) AppleWebKit/537.36 (KHTML, like Gecko) Chrome/126.0.0.0 Safari/537.36",Macintosh,Chrome,126.0.0.0,OS X,10_15_7,https://app.prolific.com/,"en-US,en;q=0.9",jxgsc4z0o,667b5427190429e5c81518f2,,,,,,<div style='display:flex; justify-content:center; align-items:center;'><img src='img/sign.png' style='width:140px; height:auto; margin-right:10px;' /><img src='img/map3_coffee_sidewalk_shortest.png' style='width:460px; height:auto;' /></div>,image_trial,,50,img/map3_coffee_sidewalk_shortest.png
2732,0,html-slider-response,22,166659,0.0-22.0,12,1,2024-07-22 20:28:11,866eb5410fc55685cfd7219525660524,99.74.179.6,"Mozilla/5.0 (Macintosh; Intel Mac OS X 10_15_7) AppleWebKit/537.36 (KHTML, like Gecko) Chrome/126.0.0.0 Safari/537.36",Macintosh,Chrome,126.0.0.0,OS X,10_15_7,https://app.prolific.com/,"en-US,en;q=0.9",jxgsc4z0o,667b5427190429e5c81518f2,,,,,,<div style='display:flex; justify-content:center; align-items:center;'><img src='img/sign.png' style='width:140px; height:auto; margin-right:10px;' /><img src='img/map2_bus_sidewalk_shortest.png' style='width:460px; height:auto;' /></div>,image_trial,,50,img/map2_bus_sidewalk_shortest.png
2616,17,html-slider-response,23,169276,0.0-23.0,12,1,2024-07-22 20:28:11,866eb5410fc55685cfd7219525660524,99.74.179.6,"Mozilla/5.0 (Macintosh; Intel Mac OS X 10_15_7) AppleWebKit/537.36 (KHTML, like Gecko) Chrome/126.0.0.0 Safari/537.36",Macintosh,Chrome,126.0.0.0,OS X,10_15_7,https://app.prolific.com/,"en-US,en;q=0.9",jxgsc4z0o,667b5427190429e5c81518f2,,,,,,<div style='display:flex; justify-content:center; align-items:center;'><img src='img/sign.png' style='width:140px; height:auto; margin-right:10px;' /><img src='img/map1_hospital_grass_wandering.png' style='width:460px; height:auto;' /></div>,image_trial,,50,img/map1_hospital_grass_wandering.png
2799,0,html-slider-response,24,172076,0.0-24.0,12,1,2024-07-22 20:28:11,866eb5410fc55685cfd7219525660524,99.74.179.6,"Mozilla/5.0 (Macintosh; Intel Mac OS X 10_15_7) AppleWebKit/537.36 (KHTML, like Gecko) Chrome/126.0.0.0 Safari/537.36",Macintosh,Chrome,126.0.0.0,OS X,10_15_7,https://app.prolific.com/,"en-US,en;q=0.9",jxgsc4z0o,667b5427190429e5c81518f2,,,,,,<div style='display:flex; justify-content:center; align-items:center;'><img src='img/sign.png' style='width:140px; height:auto; margin-right:10px;' /><img src='img/map3_coffee_grass_wandering.png' style='width:460px; height:auto;' /></div>,image_trial,,50,img/map3_coffee_grass_wandering.png
2515,0,html-slider-response,25,174593,0.0-25.0,12,1,2024-07-22 20:28:11,866eb5410fc55685cfd7219525660524,99.74.179.6,"Mozilla/5.0 (Macintosh; Intel Mac OS X 10_15_7) AppleWebKit/537.36 (KHTML, like Gecko) Chrome/126.0.0.0 Safari/537.36",Macintosh,Chrome,126.0.0.0,OS X,10_15_7,https://app.prolific.com/,"en-US,en;q=0.9",jxgsc4z0o,667b5427190429e5c81518f2,,,,,,<div style='display:flex; justify-content:center; align-items:center;'><img src='img/sign.png' style='width:140px; height:auto; margin-right:10px;' /><img src='img/map2_bus_grass_shortest.png' style='width:460px; height:auto;' /></div>,image_trial,,50,img/map2_bus_grass_shortest.png
2416,0,html-slider-response,26,177010,0.0-26.0,12,1,2024-07-22 20:28:11,866eb5410fc55685cfd7219525660524,99.74.179.6,"Mozilla/5.0 (Macintosh; Intel Mac OS X 10_15_7) AppleWebKit/537.36 (KHTML, like Gecko) Chrome/126.0.0.0 Safari/537.36",Macintosh,Chrome,126.0.0.0,OS X,10_15_7,https://app.prolific.com/,"en-US,en;q=0.9",jxgsc4z0o,667b5427190429e5c81518f2,,,,,,<div style='display:flex; justify-content:center; align-items:center;'><img src='img/sign.png' style='width:140px; height:auto; margin-right:10px;' /><img src='img/map2_coffee_grass_wandering.png' style='width:460px; height:auto;' /></div>,image_trial,,50,img/map2_coffee_grass_wandering.png
2650,0,html-slider-response,27,179661,0.0-27.0,12,1,2024-07-22 20:28:11,866eb5410fc55685cfd7219525660524,99.74.179.6,"Mozilla/5.0 (Macintosh; Intel Mac OS X 10_15_7) AppleWebKit/537.36 (KHTML, like Gecko) Chrome/126.0.0.0 Safari/537.36",Macintosh,Chrome,126.0.0.0,OS X,10_15_7,https://app.prolific.com/,"en-US,en;q=0.9",jxgsc4z0o,667b5427190429e5c81518f2,,,,,,<div style='display:flex; justify-content:center; align-items:center;'><img src='img/sign.png' style='width:140px; height:auto; margin-right:10px;' /><img src='img/map2_coffee_grass_shortest.png' style='width:460px; height:auto;' /></div>,image_trial,,50,img/map2_coffee_grass_shortest.png
3931,0,html-slider-response,28,183594,0.0-28.0,12,1,2024-07-22 20:28:11,866eb5410fc55685cfd7219525660524,99.74.179.6,"Mozilla/5.0 (Macintosh; Intel Mac OS X 10_15_7) AppleWebKit/537.36 (KHTML, like Gecko) Chrome/126.0.0.0 Safari/537.36",Macintosh,Chrome,126.0.0.0,OS X,10_15_7,https://app.prolific.com/,"en-US,en;q=0.9",jxgsc4z0o,667b5427190429e5c81518f2,,,,,,<div style='display:flex; justify-content:center; align-items:center;'><img src='img/sign.png' style='width:140px; height:auto; margin-right:10px;' /><img src='img/map2_hospital_grass_wandering.png' style='width:460px; height:auto;' /></div>,image_trial,,50,img/map2_hospital_grass_wandering.png
2449,0,html-slider-response,29,186044,0.0-29.0,12,1,2024-07-22 20:28:11,866eb5410fc55685cfd7219525660524,99.74.179.6,"Mozilla/5.0 (Macintosh; Intel Mac OS X 10_15_7) AppleWebKit/537.36 (KHTML, like Gecko) Chrome/126.0.0.0 Safari/537.36",Macintosh,Chrome,126.0.0.0,OS X,10_15_7,https://app.prolific.com/,"en-US,en;q=0.9",jxgsc4z0o,667b5427190429e5c81518f2,,,,,,<div style='display:flex; justify-content:center; align-items:center;'><img src='img/sign.png' style='width:140px; height:auto; margin-right:10px;' /><img src='img/map1_coffee_grass_wandering.png' style='width:460px; height:auto;' /></div>,image_trial,,50,img/map1_coffee_grass_wandering.png
2466,0,html-slider-response,30,188511,0.0-30.0,12,1,2024-07-22 20:28:11,866eb5410fc55685cfd7219525660524,99.74.179.6,"Mozilla/5.0 (Macintosh; Intel Mac OS X 10_15_7) AppleWebKit/537.36 (KHTML, like Gecko) Chrome/126.0.0.0 Safari/537.36",Macintosh,Chrome,126.0.0.0,OS X,10_15_7,https://app.prolific.com/,"en-US,en;q=0.9",jxgsc4z0o,667b5427190429e5c81518f2,,,,,,<div style='display:flex; justify-content:center; align-items:center;'><img src='img/sign.png' style='width:140px; height:auto; margin-right:10px;' /><img src='img/map3_hospital_grass_shortest.png' style='width:460px; height:auto;' /></div>,image_trial,,50,img/map3_hospital_grass_shortest.png
2665,0,html-slider-response,31,191178,0.0-31.0,12,1,2024-07-22 20:28:11,866eb5410fc55685cfd7219525660524,99.74.179.6,"Mozilla/5.0 (Macintosh; Intel Mac OS X 10_15_7) AppleWebKit/537.36 (KHTML, like Gecko) Chrome/126.0.0.0 Safari/537.36",Macintosh,Chrome,126.0.0.0,OS X,10_15_7,https://app.prolific.com/,"en-US,en;q=0.9",jxgsc4z0o,667b5427190429e5c81518f2,,,,,,<div style='display:flex; justify-content:center; align-items:center;'><img src='img/sign.png' style='width:140px; height:auto; margin-right:10px;' /><img src='img/map2_hospital_sidewalk_shortest.png' style='width:460px; height:auto;' /></div>,image_trial,,50,img/map2_hospital_sidewalk_shortest.png
2433,0,html-slider-response,32,193612,0.0-32.0,12,1,2024-07-22 20:28:11,866eb5410fc55685cfd7219525660524,99.74.179.6,"Mozilla/5.0 (Macintosh; Intel Mac OS X 10_15_7) AppleWebKit/537.36 (KHTML, like Gecko) Chrome/126.0.0.0 Safari/537.36",Macintosh,Chrome,126.0.0.0,OS X,10_15_7,https://app.prolific.com/,"en-US,en;q=0.9",jxgsc4z0o,667b5427190429e5c81518f2,,,,,,<div style='display:flex; justify-content:center; align-items:center;'><img src='img/sign.png' style='width:140px; height:auto; margin-right:10px;' /><img src='img/map1_bus_sidewalk_shortest.png' style='width:460px; height:auto;' /></div>,image_trial,,50,img/map1_bus_sidewalk_shortest.png
2798,0,html-slider-response,33,196413,0.0-33.0,12,1,2024-07-22 20:28:11,866eb5410fc55685cfd7219525660524,99.74.179.6,"Mozilla/5.0 (Macintosh; Intel Mac OS X 10_15_7) AppleWebKit/537.36 (KHTML, like Gecko) Chrome/126.0.0.0 Safari/537.36",Macintosh,Chrome,126.0.0.0,OS X,10_15_7,https://app.prolific.com/,"en-US,en;q=0.9",jxgsc4z0o,667b5427190429e5c81518f2,,,,,,<div style='display:flex; justify-content:center; align-items:center;'><img src='img/sign.png' style='width:140px; height:auto; margin-right:10px;' /><img src='img/map1_bus_grass_wandering.png' style='width:460px; height:auto;' /></div>,image_trial,,50,img/map1_bus_grass_wandering.png
9883,"[{""name"":""understand"",""value"":""yes""},{""name"":""problems"",""value"":""No""},{""name"":""age"",""value"":""36""},{""name"":""gender"",""value"":""female""},{""name"":""comments"",""value"":""""}]",survey-html-form,34,206298,0.0-34.0,12,1,2024-07-22 20:28:11,866eb5410fc55685cfd7219525660524,99.74.179.6,"Mozilla/5.0 (Macintosh; Intel Mac OS X 10_15_7) AppleWebKit/537.36 (KHTML, like Gecko) Chrome/126.0.0.0 Safari/537.36",Macintosh,Chrome,126.0.0.0,OS X,10_15_7,https://app.prolific.com/,"en-US,en;q=0.9",jxgsc4z0o,667b5427190429e5c81518f2,,,,,,,debrief,,,
10516,"{""Q0"":""jxgsc4z0o""}",survey-text,35,216816,0.0-35.0,12,1,2024-07-22 20:28:11,866eb5410fc55685cfd7219525660524,99.74.179.6,"Mozilla/5.0 (Macintosh; Intel Mac OS X 10_15_7) AppleWebKit/537.36 (KHTML, like Gecko) Chrome/126.0.0.0 Safari/537.36",Macintosh,Chrome,126.0.0.0,OS X,10_15_7,https://app.prolific.com/,"en-US,en;q=0.9",jxgsc4z0o,667b5427190429e5c81518f2,,,,,,,,,,
23422,"{""prolific_id"":""59a4b7e0c9281e0001c1bc8f""}",survey-text,0,23432,0.0-0.0,11,1,2024-07-22 20:27:52,866eb5410fc55685cfd7219525660524,138.84.227.186,"Mozilla/5.0 (Windows NT 10.0; Win64; x64) AppleWebKit/537.36 (KHTML, like Gecko) Chrome/126.0.0.0 Safari/537.36",WebKit,Chrome,126.0.0.0,Windows,10.0,https://app.prolific.com/,"en-US,en;q=0.9",8pvevshb0,59a4b7e0c9281e0001c1bc8f,,,,,,,,,,
,,preload,1,24023,0.0-1.0,11,1,2024-07-22 20:27:52,866eb5410fc55685cfd7219525660524,138.84.227.186,"Mozilla/5.0 (Windows NT 10.0; Win64; x64) AppleWebKit/537.36 (KHTML, like Gecko) Chrome/126.0.0.0 Safari/537.36",WebKit,Chrome,126.0.0.0,Windows,10.0,https://app.prolific.com/,"en-US,en;q=0.9",8pvevshb0,59a4b7e0c9281e0001c1bc8f,true,false,[],[],[],,,,,
4377, ,html-keyboard-response,2,28401,0.0-2.0,11,1,2024-07-22 20:27:52,866eb5410fc55685cfd7219525660524,138.84.227.186,"Mozilla/5.0 (Windows NT 10.0; Win64; x64) AppleWebKit/537.36 (KHTML, like Gecko) Chrome/126.0.0.0 Safari/537.36",WebKit,Chrome,126.0.0.0,Windows,10.0,https://app.prolific.com/,"en-US,en;q=0.9",8pvevshb0,59a4b7e0c9281e0001c1bc8f,,,,,,"<p style=""text-align:center;width:700px;""> Welcome to the experiment! This study takes most people around 10 minutes to complete. Please complete it in one sitting.</p>",,,,
4394,y,html-keyboard-response,3,32795,0.0-3.0,11,1,2024-07-22 20:27:52,866eb5410fc55685cfd7219525660524,138.84.227.186,"Mozilla/5.0 (Windows NT 10.0; Win64; x64) AppleWebKit/537.36 (KHTML, like Gecko) Chrome/126.0.0.0 Safari/537.36",WebKit,Chrome,126.0.0.0,Windows,10.0,https://app.prolific.com/,"en-US,en;q=0.9",8pvevshb0,59a4b7e0c9281e0001c1bc8f,,,,,,"<p style = ""font-size:16px;"">MIT Computational Cognitive Science Lab</p><h4>Press the 'y' key to consent.</h4><div style = ""background-color:#f2f2f2;""><h3>Informed Consent Form</h3><div style=""text-align:left;width:700px;""><p style = ""font-size:16px;"">In this study, you will be asked to read a set of instructions that describe a particular scenario, and you will then be asked to perform a simple task relating to that scenario. There will also be comprehension and attention checks. Participants who do not answer these checks correctly cannot be approved. In order to get credit for this study, you must read all the questions fully and answer honestly. You may only complete this study once. If you complete this study multiple times, you will be rejected.</p><p style = ""font-size:16px;"">This study is part of a MIT scientific research project. Your decision to complete this study is voluntary. There is no way for us to identify you. The only information we will have, in addition to your responses, is the time at which you completed the survey. The results of the research may be presented at scientific meetings or published in scientific journals. Pressing the ""Y"" key indicates that you are at least 18 years of age, and agree to complete this study voluntarily. Press the ""Y"" key to confirm your agreement and continue.</p></div>",,,,
62625,"{""instructions1"":""A park and the surrounding areas in a medium-sized town.""}",survey-text,4,95432,0.0-4.0,11,1,2024-07-22 20:27:52,866eb5410fc55685cfd7219525660524,138.84.227.186,"Mozilla/5.0 (Windows NT 10.0; Win64; x64) AppleWebKit/537.36 (KHTML, like Gecko) Chrome/126.0.0.0 Safari/537.36",WebKit,Chrome,126.0.0.0,Windows,10.0,https://app.prolific.com/,"en-US,en;q=0.9",8pvevshb0,59a4b7e0c9281e0001c1bc8f,,,,,,,instructions,,,
20172,"{""instructions2"":""Yes""}",survey-text,5,115608,0.0-5.0,11,1,2024-07-22 20:27:52,866eb5410fc55685cfd7219525660524,138.84.227.186,"Mozilla/5.0 (Windows NT 10.0; Win64; x64) AppleWebKit/537.36 (KHTML, like Gecko) Chrome/126.0.0.0 Safari/537.36",WebKit,Chrome,126.0.0.0,Windows,10.0,https://app.prolific.com/,"en-US,en;q=0.9",8pvevshb0,59a4b7e0c9281e0001c1bc8f,,,,,,,instructions,,,
35743,"{""map_attention"":""Maps showing a small city, park, and destinations"",""squares_attention"":""Two terrains (grass and sidewalk) and three destinations (urgent care, bus stop, coffee shop)"",""answer_attention"":""Based on your own best judgment based on the map that you see, as well as your <i>own</i> common sense intuitions about towns and these kinds of destinations in general.""}",survey-multi-choice,6,151353,0.0-6.0,11,1,2024-07-22 20:27:52,866eb5410fc55685cfd7219525660524,138.84.227.186,"Mozilla/5.0 (Windows NT 10.0; Win64; x64) AppleWebKit/537.36 (KHTML, like Gecko) Chrome/126.0.0.0 Safari/537.36",WebKit,Chrome,126.0.0.0,Windows,10.0,https://app.prolific.com/,"en-US,en;q=0.9",8pvevshb0,59a4b7e0c9281e0001c1bc8f,,,,,,,,"[0,1,2]",,
19077,0,html-slider-response,7,170433,0.0-7.0,11,1,2024-07-22 20:27:52,866eb5410fc55685cfd7219525660524,138.84.227.186,"Mozilla/5.0 (Windows NT 10.0; Win64; x64) AppleWebKit/537.36 (KHTML, like Gecko) Chrome/126.0.0.0 Safari/537.36",WebKit,Chrome,126.0.0.0,Windows,10.0,https://app.prolific.com/,"en-US,en;q=0.9",8pvevshb0,59a4b7e0c9281e0001c1bc8f,,,,,,<div style='display:flex; justify-content:center; align-items:center;'><img src='img/sign.png' style='width:140px; height:auto; margin-right:10px;' /><img src='img/map1_bus_grass_shortest.png' style='width:460px; height:auto;' /></div>,image_trial,,50,img/map1_bus_grass_shortest.png
10279,0,html-slider-response,8,180713,0.0-8.0,11,1,2024-07-22 20:27:52,866eb5410fc55685cfd7219525660524,138.84.227.186,"Mozilla/5.0 (Windows NT 10.0; Win64; x64) AppleWebKit/537.36 (KHTML, like Gecko) Chrome/126.0.0.0 Safari/537.36",WebKit,Chrome,126.0.0.0,Windows,10.0,https://app.prolific.com/,"en-US,en;q=0.9",8pvevshb0,59a4b7e0c9281e0001c1bc8f,,,,,,<div style='display:flex; justify-content:center; align-items:center;'><img src='img/sign.png' style='width:140px; height:auto; margin-right:10px;' /><img src='img/map1_coffee_grass_wandering.png' style='width:460px; height:auto;' /></div>,image_trial,,50,img/map1_coffee_grass_wandering.png
4919,100,html-slider-response,9,185633,0.0-9.0,11,1,2024-07-22 20:27:52,866eb5410fc55685cfd7219525660524,138.84.227.186,"Mozilla/5.0 (Windows NT 10.0; Win64; x64) AppleWebKit/537.36 (KHTML, like Gecko) Chrome/126.0.0.0 Safari/537.36",WebKit,Chrome,126.0.0.0,Windows,10.0,https://app.prolific.com/,"en-US,en;q=0.9",8pvevshb0,59a4b7e0c9281e0001c1bc8f,,,,,,<div style='display:flex; justify-content:center; align-items:center;'><img src='img/sign.png' style='width:140px; height:auto; margin-right:10px;' /><img src='img/map3_hospital_sidewalk_shortest.png' style='width:460px; height:auto;' /></div>,image_trial,,50,img/map3_hospital_sidewalk_shortest.png
4550,100,html-slider-response,10,190185,0.0-10.0,11,1,2024-07-22 20:27:52,866eb5410fc55685cfd7219525660524,138.84.227.186,"Mozilla/5.0 (Windows NT 10.0; Win64; x64) AppleWebKit/537.36 (KHTML, like Gecko) Chrome/126.0.0.0 Safari/537.36",WebKit,Chrome,126.0.0.0,Windows,10.0,https://app.prolific.com/,"en-US,en;q=0.9",8pvevshb0,59a4b7e0c9281e0001c1bc8f,,,,,,<div style='display:flex; justify-content:center; align-items:center;'><img src='img/sign.png' style='width:140px; height:auto; margin-right:10px;' /><img src='img/map3_bus_sidewalk_shortest.png' style='width:460px; height:auto;' /></div>,image_trial,,50,img/map3_bus_sidewalk_shortest.png
7927,0,html-slider-response,11,198113,0.0-11.0,11,1,2024-07-22 20:27:52,866eb5410fc55685cfd7219525660524,138.84.227.186,"Mozilla/5.0 (Windows NT 10.0; Win64; x64) AppleWebKit/537.36 (KHTML, like Gecko) Chrome/126.0.0.0 Safari/537.36",WebKit,Chrome,126.0.0.0,Windows,10.0,https://app.prolific.com/,"en-US,en;q=0.9",8pvevshb0,59a4b7e0c9281e0001c1bc8f,,,,,,<div style='display:flex; justify-content:center; align-items:center;'><img src='img/sign.png' style='width:140px; height:auto; margin-right:10px;' /><img src='img/map3_bus_grass_shortest.png' style='width:460px; height:auto;' /></div>,image_trial,,50,img/map3_bus_grass_shortest.png
13262,60,html-slider-response,12,211377,0.0-12.0,11,1,2024-07-22 20:27:52,866eb5410fc55685cfd7219525660524,138.84.227.186,"Mozilla/5.0 (Windows NT 10.0; Win64; x64) AppleWebKit/537.36 (KHTML, like Gecko) Chrome/126.0.0.0 Safari/537.36",WebKit,Chrome,126.0.0.0,Windows,10.0,https://app.prolific.com/,"en-US,en;q=0.9",8pvevshb0,59a4b7e0c9281e0001c1bc8f,,,,,,<div style='display:flex; justify-content:center; align-items:center;'><img src='img/sign.png' style='width:140px; height:auto; margin-right:10px;' /><img src='img/map1_hospital_grass_shortest.png' style='width:460px; height:auto;' /></div>,image_trial,,50,img/map1_hospital_grass_shortest.png
5295,100,html-slider-response,13,216673,0.0-13.0,11,1,2024-07-22 20:27:52,866eb5410fc55685cfd7219525660524,138.84.227.186,"Mozilla/5.0 (Windows NT 10.0; Win64; x64) AppleWebKit/537.36 (KHTML, like Gecko) Chrome/126.0.0.0 Safari/537.36",WebKit,Chrome,126.0.0.0,Windows,10.0,https://app.prolific.com/,"en-US,en;q=0.9",8pvevshb0,59a4b7e0c9281e0001c1bc8f,,,,,,<div style='display:flex; justify-content:center; align-items:center;'><img src='img/sign.png' style='width:140px; height:auto; margin-right:10px;' /><img src='img/map2_hospital_sidewalk_shortest.png' style='width:460px; height:auto;' /></div>,image_trial,,50,img/map2_hospital_sidewalk_shortest.png
13135,0,html-slider-response,14,229809,0.0-14.0,11,1,2024-07-22 20:27:52,866eb5410fc55685cfd7219525660524,138.84.227.186,"Mozilla/5.0 (Windows NT 10.0; Win64; x64) AppleWebKit/537.36 (KHTML, like Gecko) Chrome/126.0.0.0 Safari/537.36",WebKit,Chrome,126.0.0.0,Windows,10.0,https://app.prolific.com/,"en-US,en;q=0.9",8pvevshb0,59a4b7e0c9281e0001c1bc8f,,,,,,<div style='display:flex; justify-content:center; align-items:center;'><img src='img/sign.png' style='width:140px; height:auto; margin-right:10px;' /><img src='img/map2_bus_grass_wandering.png' style='width:460px; height:auto;' /></div>,image_trial,,50,img/map2_bus_grass_wandering.png
7247,37,html-slider-response,15,237057,0.0-15.0,11,1,2024-07-22 20:27:52,866eb5410fc55685cfd7219525660524,138.84.227.186,"Mozilla/5.0 (Windows NT 10.0; Win64; x64) AppleWebKit/537.36 (KHTML, like Gecko) Chrome/126.0.0.0 Safari/537.36",WebKit,Chrome,126.0.0.0,Windows,10.0,https://app.prolific.com/,"en-US,en;q=0.9",8pvevshb0,59a4b7e0c9281e0001c1bc8f,,,,,,<div style='display:flex; justify-content:center; align-items:center;'><img src='img/sign.png' style='width:140px; height:auto; margin-right:10px;' /><img src='img/map3_hospital_grass_wandering.png' style='width:460px; height:auto;' /></div>,image_trial,,50,img/map3_hospital_grass_wandering.png
7807,67,html-slider-response,16,244865,0.0-16.0,11,1,2024-07-22 20:27:52,866eb5410fc55685cfd7219525660524,138.84.227.186,"Mozilla/5.0 (Windows NT 10.0; Win64; x64) AppleWebKit/537.36 (KHTML, like Gecko) Chrome/126.0.0.0 Safari/537.36",WebKit,Chrome,126.0.0.0,Windows,10.0,https://app.prolific.com/,"en-US,en;q=0.9",8pvevshb0,59a4b7e0c9281e0001c1bc8f,,,,,,<div style='display:flex; justify-content:center; align-items:center;'><img src='img/sign.png' style='width:140px; height:auto; margin-right:10px;' /><img src='img/map2_hospital_grass_shortest.png' style='width:460px; height:auto;' /></div>,image_trial,,50,img/map2_hospital_grass_shortest.png
5918,0,html-slider-response,17,250785,0.0-17.0,11,1,2024-07-22 20:27:52,866eb5410fc55685cfd7219525660524,138.84.227.186,"Mozilla/5.0 (Windows NT 10.0; Win64; x64) AppleWebKit/537.36 (KHTML, like Gecko) Chrome/126.0.0.0 Safari/537.36",WebKit,Chrome,126.0.0.0,Windows,10.0,https://app.prolific.com/,"en-US,en;q=0.9",8pvevshb0,59a4b7e0c9281e0001c1bc8f,,,,,,<div style='display:flex; justify-content:center; align-items:center;'><img src='img/sign.png' style='width:140px; height:auto; margin-right:10px;' /><img src='img/map3_bus_grass_wandering.png' style='width:460px; height:auto;' /></div>,image_trial,,50,img/map3_bus_grass_wandering.png
6542,34,html-slider-response,18,257329,0.0-18.0,11,1,2024-07-22 20:27:52,866eb5410fc55685cfd7219525660524,138.84.227.186,"Mozilla/5.0 (Windows NT 10.0; Win64; x64) AppleWebKit/537.36 (KHTML, like Gecko) Chrome/126.0.0.0 Safari/537.36",WebKit,Chrome,126.0.0.0,Windows,10.0,https://app.prolific.com/,"en-US,en;q=0.9",8pvevshb0,59a4b7e0c9281e0001c1bc8f,,,,,,<div style='display:flex; justify-content:center; align-items:center;'><img src='img/sign.png' style='width:140px; height:auto; margin-right:10px;' /><img src='img/map2_bus_grass_shortest.png' style='width:460px; height:auto;' /></div>,image_trial,,50,img/map2_bus_grass_shortest.png
3327,100,html-slider-response,19,260657,0.0-19.0,11,1,2024-07-22 20:27:52,866eb5410fc55685cfd7219525660524,138.84.227.186,"Mozilla/5.0 (Windows NT 10.0; Win64; x64) AppleWebKit/537.36 (KHTML, like Gecko) Chrome/126.0.0.0 Safari/537.36",WebKit,Chrome,126.0.0.0,Windows,10.0,https://app.prolific.com/,"en-US,en;q=0.9",8pvevshb0,59a4b7e0c9281e0001c1bc8f,,,,,,<div style='display:flex; justify-content:center; align-items:center;'><img src='img/sign.png' style='width:140px; height:auto; margin-right:10px;' /><img src='img/map1_hospital_sidewalk_shortest.png' style='width:460px; height:auto;' /></div>,image_trial,,50,img/map1_hospital_sidewalk_shortest.png
2871,0,html-slider-response,20,263529,0.0-20.0,11,1,2024-07-22 20:27:52,866eb5410fc55685cfd7219525660524,138.84.227.186,"Mozilla/5.0 (Windows NT 10.0; Win64; x64) AppleWebKit/537.36 (KHTML, like Gecko) Chrome/126.0.0.0 Safari/537.36",WebKit,Chrome,126.0.0.0,Windows,10.0,https://app.prolific.com/,"en-US,en;q=0.9",8pvevshb0,59a4b7e0c9281e0001c1bc8f,,,,,,<div style='display:flex; justify-content:center; align-items:center;'><img src='img/sign.png' style='width:140px; height:auto; margin-right:10px;' /><img src='img/map1_bus_grass_wandering.png' style='width:460px; height:auto;' /></div>,image_trial,,50,img/map1_bus_grass_wandering.png
2335,100,html-slider-response,21,265865,0.0-21.0,11,1,2024-07-22 20:27:52,866eb5410fc55685cfd7219525660524,138.84.227.186,"Mozilla/5.0 (Windows NT 10.0; Win64; x64) AppleWebKit/537.36 (KHTML, like Gecko) Chrome/126.0.0.0 Safari/537.36",WebKit,Chrome,126.0.0.0,Windows,10.0,https://app.prolific.com/,"en-US,en;q=0.9",8pvevshb0,59a4b7e0c9281e0001c1bc8f,,,,,,<div style='display:flex; justify-content:center; align-items:center;'><img src='img/sign.png' style='width:140px; height:auto; margin-right:10px;' /><img src='img/map2_bus_sidewalk_shortest.png' style='width:460px; height:auto;' /></div>,image_trial,,50,img/map2_bus_sidewalk_shortest.png
2862,100,html-slider-response,22,268729,0.0-22.0,11,1,2024-07-22 20:27:52,866eb5410fc55685cfd7219525660524,138.84.227.186,"Mozilla/5.0 (Windows NT 10.0; Win64; x64) AppleWebKit/537.36 (KHTML, like Gecko) Chrome/126.0.0.0 Safari/537.36",WebKit,Chrome,126.0.0.0,Windows,10.0,https://app.prolific.com/,"en-US,en;q=0.9",8pvevshb0,59a4b7e0c9281e0001c1bc8f,,,,,,<div style='display:flex; justify-content:center; align-items:center;'><img src='img/sign.png' style='width:140px; height:auto; margin-right:10px;' /><img src='img/map2_coffee_sidewalk_shortest.png' style='width:460px; height:auto;' /></div>,image_trial,,50,img/map2_coffee_sidewalk_shortest.png
4439,0,html-slider-response,23,273169,0.0-23.0,11,1,2024-07-22 20:27:52,866eb5410fc55685cfd7219525660524,138.84.227.186,"Mozilla/5.0 (Windows NT 10.0; Win64; x64) AppleWebKit/537.36 (KHTML, like Gecko) Chrome/126.0.0.0 Safari/537.36",WebKit,Chrome,126.0.0.0,Windows,10.0,https://app.prolific.com/,"en-US,en;q=0.9",8pvevshb0,59a4b7e0c9281e0001c1bc8f,,,,,,<div style='display:flex; justify-content:center; align-items:center;'><img src='img/sign.png' style='width:140px; height:auto; margin-right:10px;' /><img src='img/map2_hospital_grass_wandering.png' style='width:460px; height:auto;' /></div>,image_trial,,50,img/map2_hospital_grass_wandering.png
4495,23,html-slider-response,24,277665,0.0-24.0,11,1,2024-07-22 20:27:52,866eb5410fc55685cfd7219525660524,138.84.227.186,"Mozilla/5.0 (Windows NT 10.0; Win64; x64) AppleWebKit/537.36 (KHTML, like Gecko) Chrome/126.0.0.0 Safari/537.36",WebKit,Chrome,126.0.0.0,Windows,10.0,https://app.prolific.com/,"en-US,en;q=0.9",8pvevshb0,59a4b7e0c9281e0001c1bc8f,,,,,,<div style='display:flex; justify-content:center; align-items:center;'><img src='img/sign.png' style='width:140px; height:auto; margin-right:10px;' /><img src='img/map2_coffee_grass_shortest.png' style='width:460px; height:auto;' /></div>,image_trial,,50,img/map2_coffee_grass_shortest.png
5775,2,html-slider-response,25,283441,0.0-25.0,11,1,2024-07-22 20:27:52,866eb5410fc55685cfd7219525660524,138.84.227.186,"Mozilla/5.0 (Windows NT 10.0; Win64; x64) AppleWebKit/537.36 (KHTML, like Gecko) Chrome/126.0.0.0 Safari/537.36",WebKit,Chrome,126.0.0.0,Windows,10.0,https://app.prolific.com/,"en-US,en;q=0.9",8pvevshb0,59a4b7e0c9281e0001c1bc8f,,,,,,<div style='display:flex; justify-content:center; align-items:center;'><img src='img/sign.png' style='width:140px; height:auto; margin-right:10px;' /><img src='img/map1_coffee_grass_shortest.png' style='width:460px; height:auto;' /></div>,image_trial,,50,img/map1_coffee_grass_shortest.png
3455,0,html-slider-response,26,286897,0.0-26.0,11,1,2024-07-22 20:27:52,866eb5410fc55685cfd7219525660524,138.84.227.186,"Mozilla/5.0 (Windows NT 10.0; Win64; x64) AppleWebKit/537.36 (KHTML, like Gecko) Chrome/126.0.0.0 Safari/537.36",WebKit,Chrome,126.0.0.0,Windows,10.0,https://app.prolific.com/,"en-US,en;q=0.9",8pvevshb0,59a4b7e0c9281e0001c1bc8f,,,,,,<div style='display:flex; justify-content:center; align-items:center;'><img src='img/sign.png' style='width:140px; height:auto; margin-right:10px;' /><img src='img/map2_coffee_grass_wandering.png' style='width:460px; height:auto;' /></div>,image_trial,,50,img/map2_coffee_grass_wandering.png
12679,35,html-slider-response,27,299577,0.0-27.0,11,1,2024-07-22 20:27:52,866eb5410fc55685cfd7219525660524,138.84.227.186,"Mozilla/5.0 (Windows NT 10.0; Win64; x64) AppleWebKit/537.36 (KHTML, like Gecko) Chrome/126.0.0.0 Safari/537.36",WebKit,Chrome,126.0.0.0,Windows,10.0,https://app.prolific.com/,"en-US,en;q=0.9",8pvevshb0,59a4b7e0c9281e0001c1bc8f,,,,,,<div style='display:flex; justify-content:center; align-items:center;'><img src='img/sign.png' style='width:140px; height:auto; margin-right:10px;' /><img src='img/map1_hospital_grass_wandering.png' style='width:460px; height:auto;' /></div>,image_trial,,50,img/map1_hospital_grass_wandering.png
4911,0,html-slider-response,28,304489,0.0-28.0,11,1,2024-07-22 20:27:52,866eb5410fc55685cfd7219525660524,138.84.227.186,"Mozilla/5.0 (Windows NT 10.0; Win64; x64) AppleWebKit/537.36 (KHTML, like Gecko) Chrome/126.0.0.0 Safari/537.36",WebKit,Chrome,126.0.0.0,Windows,10.0,https://app.prolific.com/,"en-US,en;q=0.9",8pvevshb0,59a4b7e0c9281e0001c1bc8f,,,,,,<div style='display:flex; justify-content:center; align-items:center;'><img src='img/sign.png' style='width:140px; height:auto; margin-right:10px;' /><img src='img/map3_coffee_grass_shortest.png' style='width:460px; height:auto;' /></div>,image_trial,,50,img/map3_coffee_grass_shortest.png
3230,100,html-slider-response,29,307721,0.0-29.0,11,1,2024-07-22 20:27:52,866eb5410fc55685cfd7219525660524,138.84.227.186,"Mozilla/5.0 (Windows NT 10.0; Win64; x64) AppleWebKit/537.36 (KHTML, like Gecko) Chrome/126.0.0.0 Safari/537.36",WebKit,Chrome,126.0.0.0,Windows,10.0,https://app.prolific.com/,"en-US,en;q=0.9",8pvevshb0,59a4b7e0c9281e0001c1bc8f,,,,,,<div style='display:flex; justify-content:center; align-items:center;'><img src='img/sign.png' style='width:140px; height:auto; margin-right:10px;' /><img src='img/map3_coffee_sidewalk_shortest.png' style='width:460px; height:auto;' /></div>,image_trial,,50,img/map3_coffee_sidewalk_shortest.png
3183,100,html-slider-response,30,310905,0.0-30.0,11,1,2024-07-22 20:27:52,866eb5410fc55685cfd7219525660524,138.84.227.186,"Mozilla/5.0 (Windows NT 10.0; Win64; x64) AppleWebKit/537.36 (KHTML, like Gecko) Chrome/126.0.0.0 Safari/537.36",WebKit,Chrome,126.0.0.0,Windows,10.0,https://app.prolific.com/,"en-US,en;q=0.9",8pvevshb0,59a4b7e0c9281e0001c1bc8f,,,,,,<div style='display:flex; justify-content:center; align-items:center;'><img src='img/sign.png' style='width:140px; height:auto; margin-right:10px;' /><img src='img/map1_coffee_sidewalk_shortest.png' style='width:460px; height:auto;' /></div>,image_trial,,50,img/map1_coffee_sidewalk_shortest.png
3150,100,html-slider-response,31,314058,0.0-31.0,11,1,2024-07-22 20:27:52,866eb5410fc55685cfd7219525660524,138.84.227.186,"Mozilla/5.0 (Windows NT 10.0; Win64; x64) AppleWebKit/537.36 (KHTML, like Gecko) Chrome/126.0.0.0 Safari/537.36",WebKit,Chrome,126.0.0.0,Windows,10.0,https://app.prolific.com/,"en-US,en;q=0.9",8pvevshb0,59a4b7e0c9281e0001c1bc8f,,,,,,<div style='display:flex; justify-content:center; align-items:center;'><img src='img/sign.png' style='width:140px; height:auto; margin-right:10px;' /><img src='img/map1_bus_sidewalk_shortest.png' style='width:460px; height:auto;' /></div>,image_trial,,50,img/map1_bus_sidewalk_shortest.png
6615,31,html-slider-response,32,320674,0.0-32.0,11,1,2024-07-22 20:27:52,866eb5410fc55685cfd7219525660524,138.84.227.186,"Mozilla/5.0 (Windows NT 10.0; Win64; x64) AppleWebKit/537.36 (KHTML, like Gecko) Chrome/126.0.0.0 Safari/537.36",WebKit,Chrome,126.0.0.0,Windows,10.0,https://app.prolific.com/,"en-US,en;q=0.9",8pvevshb0,59a4b7e0c9281e0001c1bc8f,,,,,,<div style='display:flex; justify-content:center; align-items:center;'><img src='img/sign.png' style='width:140px; height:auto; margin-right:10px;' /><img src='img/map3_hospital_grass_shortest.png' style='width:460px; height:auto;' /></div>,image_trial,,50,img/map3_hospital_grass_shortest.png
3493,0,html-slider-response,33,324169,0.0-33.0,11,1,2024-07-22 20:27:52,866eb5410fc55685cfd7219525660524,138.84.227.186,"Mozilla/5.0 (Windows NT 10.0; Win64; x64) AppleWebKit/537.36 (KHTML, like Gecko) Chrome/126.0.0.0 Safari/537.36",WebKit,Chrome,126.0.0.0,Windows,10.0,https://app.prolific.com/,"en-US,en;q=0.9",8pvevshb0,59a4b7e0c9281e0001c1bc8f,,,,,,<div style='display:flex; justify-content:center; align-items:center;'><img src='img/sign.png' style='width:140px; height:auto; margin-right:10px;' /><img src='img/map3_coffee_grass_wandering.png' style='width:460px; height:auto;' /></div>,image_trial,,50,img/map3_coffee_grass_wandering.png
23584,"[{""name"":""understand"",""value"":""yes""},{""name"":""problems"",""value"":""No problems.""},{""name"":""age"",""value"":""30""},{""name"":""gender"",""value"":""male""},{""name"":""comments"",""value"":""""}]",survey-html-form,34,347754,0.0-34.0,11,1,2024-07-22 20:27:52,866eb5410fc55685cfd7219525660524,138.84.227.186,"Mozilla/5.0 (Windows NT 10.0; Win64; x64) AppleWebKit/537.36 (KHTML, like Gecko) Chrome/126.0.0.0 Safari/537.36",WebKit,Chrome,126.0.0.0,Windows,10.0,https://app.prolific.com/,"en-US,en;q=0.9",8pvevshb0,59a4b7e0c9281e0001c1bc8f,,,,,,,debrief,,,
10783,"{""Q0"":""8pvevshb0""}",survey-text,35,358546,0.0-35.0,11,1,2024-07-22 20:27:52,866eb5410fc55685cfd7219525660524,138.84.227.186,"Mozilla/5.0 (Windows NT 10.0; Win64; x64) AppleWebKit/537.36 (KHTML, like Gecko) Chrome/126.0.0.0 Safari/537.36",WebKit,Chrome,126.0.0.0,Windows,10.0,https://app.prolific.com/,"en-US,en;q=0.9",8pvevshb0,59a4b7e0c9281e0001c1bc8f,,,,,,,,,,
8717,"{""prolific_id"":""5f836dbde582bf4f666b121e""}",survey-text,0,8734,0.0-0.0,10,1,2024-07-22 20:27:14,866eb5410fc55685cfd7219525660524,75.43.50.58,"Mozilla/5.0 (Windows NT 10.0; Win64; x64) AppleWebKit/537.36 (KHTML, like Gecko) Chrome/126.0.0.0 Safari/537.36",WebKit,Chrome,126.0.0.0,Windows,10.0,https://app.prolific.com/,"en-US,en;q=0.9",r0qu20bdr,5f836dbde582bf4f666b121e,,,,,,,,,,
,,preload,1,9090,0.0-1.0,10,1,2024-07-22 20:27:14,866eb5410fc55685cfd7219525660524,75.43.50.58,"Mozilla/5.0 (Windows NT 10.0; Win64; x64) AppleWebKit/537.36 (KHTML, like Gecko) Chrome/126.0.0.0 Safari/537.36",WebKit,Chrome,126.0.0.0,Windows,10.0,https://app.prolific.com/,"en-US,en;q=0.9",r0qu20bdr,5f836dbde582bf4f666b121e,true,false,[],[],[],,,,,
3291, ,html-keyboard-response,2,12384,0.0-2.0,10,1,2024-07-22 20:27:14,866eb5410fc55685cfd7219525660524,75.43.50.58,"Mozilla/5.0 (Windows NT 10.0; Win64; x64) AppleWebKit/537.36 (KHTML, like Gecko) Chrome/126.0.0.0 Safari/537.36",WebKit,Chrome,126.0.0.0,Windows,10.0,https://app.prolific.com/,"en-US,en;q=0.9",r0qu20bdr,5f836dbde582bf4f666b121e,,,,,,"<p style=""text-align:center;width:700px;""> Welcome to the experiment! This study takes most people around 10 minutes to complete. Please complete it in one sitting.</p>",,,,
13181,y,html-keyboard-response,3,25568,0.0-3.0,10,1,2024-07-22 20:27:14,866eb5410fc55685cfd7219525660524,75.43.50.58,"Mozilla/5.0 (Windows NT 10.0; Win64; x64) AppleWebKit/537.36 (KHTML, like Gecko) Chrome/126.0.0.0 Safari/537.36",WebKit,Chrome,126.0.0.0,Windows,10.0,https://app.prolific.com/,"en-US,en;q=0.9",r0qu20bdr,5f836dbde582bf4f666b121e,,,,,,"<p style = ""font-size:16px;"">MIT Computational Cognitive Science Lab</p><h4>Press the 'y' key to consent.</h4><div style = ""background-color:#f2f2f2;""><h3>Informed Consent Form</h3><div style=""text-align:left;width:700px;""><p style = ""font-size:16px;"">In this study, you will be asked to read a set of instructions that describe a particular scenario, and you will then be asked to perform a simple task relating to that scenario. There will also be comprehension and attention checks. Participants who do not answer these checks correctly cannot be approved. In order to get credit for this study, you must read all the questions fully and answer honestly. You may only complete this study once. If you complete this study multiple times, you will be rejected.</p><p style = ""font-size:16px;"">This study is part of a MIT scientific research project. Your decision to complete this study is voluntary. There is no way for us to identify you. The only information we will have, in addition to your responses, is the time at which you completed the survey. The results of the research may be presented at scientific meetings or published in scientific journals. Pressing the ""Y"" key indicates that you are at least 18 years of age, and agree to complete this study voluntarily. Press the ""Y"" key to confirm your agreement and continue.</p></div>",,,,
148444,"{""instructions1"":""a park and surrounding areas in a medium sized town""}",survey-text,4,174056,0.0-4.0,10,1,2024-07-22 20:27:14,866eb5410fc55685cfd7219525660524,75.43.50.58,"Mozilla/5.0 (Windows NT 10.0; Win64; x64) AppleWebKit/537.36 (KHTML, like Gecko) Chrome/126.0.0.0 Safari/537.36",WebKit,Chrome,126.0.0.0,Windows,10.0,https://app.prolific.com/,"en-US,en;q=0.9",r0qu20bdr,5f836dbde582bf4f666b121e,,,,,,,instructions,,,
109132,"{""instructions2"":""yes""}",survey-text,5,283204,0.0-5.0,10,1,2024-07-22 20:27:14,866eb5410fc55685cfd7219525660524,75.43.50.58,"Mozilla/5.0 (Windows NT 10.0; Win64; x64) AppleWebKit/537.36 (KHTML, like Gecko) Chrome/126.0.0.0 Safari/537.36",WebKit,Chrome,126.0.0.0,Windows,10.0,https://app.prolific.com/,"en-US,en;q=0.9",r0qu20bdr,5f836dbde582bf4f666b121e,,,,,,,instructions,,,
168678,"{""map_attention"":""Maps showing a small city, park, and destinations"",""squares_attention"":""Two terrains (grass and sidewalk) and three destinations (urgent care, bus stop, coffee shop)"",""answer_attention"":""Based on your own best judgment based on the map that you see, as well as your <i>own</i> common sense intuitions about towns and these kinds of destinations in general.""}",survey-multi-choice,6,451888,0.0-6.0,10,1,2024-07-22 20:27:14,866eb5410fc55685cfd7219525660524,75.43.50.58,"Mozilla/5.0 (Windows NT 10.0; Win64; x64) AppleWebKit/537.36 (KHTML, like Gecko) Chrome/126.0.0.0 Safari/537.36",WebKit,Chrome,126.0.0.0,Windows,10.0,https://app.prolific.com/,"en-US,en;q=0.9",r0qu20bdr,5f836dbde582bf4f666b121e,,,,,,,,"[0,1,2]",,
14275,13,html-slider-response,7,466175,0.0-7.0,10,1,2024-07-22 20:27:14,866eb5410fc55685cfd7219525660524,75.43.50.58,"Mozilla/5.0 (Windows NT 10.0; Win64; x64) AppleWebKit/537.36 (KHTML, like Gecko) Chrome/126.0.0.0 Safari/537.36",WebKit,Chrome,126.0.0.0,Windows,10.0,https://app.prolific.com/,"en-US,en;q=0.9",r0qu20bdr,5f836dbde582bf4f666b121e,,,,,,<div style='display:flex; justify-content:center; align-items:center;'><img src='img/sign.png' style='width:140px; height:auto; margin-right:10px;' /><img src='img/map3_bus_grass_wandering.png' style='width:460px; height:auto;' /></div>,image_trial,,50,img/map3_bus_grass_wandering.png
16025,66,html-slider-response,8,482205,0.0-8.0,10,1,2024-07-22 20:27:14,866eb5410fc55685cfd7219525660524,75.43.50.58,"Mozilla/5.0 (Windows NT 10.0; Win64; x64) AppleWebKit/537.36 (KHTML, like Gecko) Chrome/126.0.0.0 Safari/537.36",WebKit,Chrome,126.0.0.0,Windows,10.0,https://app.prolific.com/,"en-US,en;q=0.9",r0qu20bdr,5f836dbde582bf4f666b121e,,,,,,<div style='display:flex; justify-content:center; align-items:center;'><img src='img/sign.png' style='width:140px; height:auto; margin-right:10px;' /><img src='img/map2_coffee_grass_shortest.png' style='width:460px; height:auto;' /></div>,image_trial,,50,img/map2_coffee_grass_shortest.png
18907,26,html-slider-response,9,501117,0.0-9.0,10,1,2024-07-22 20:27:14,866eb5410fc55685cfd7219525660524,75.43.50.58,"Mozilla/5.0 (Windows NT 10.0; Win64; x64) AppleWebKit/537.36 (KHTML, like Gecko) Chrome/126.0.0.0 Safari/537.36",WebKit,Chrome,126.0.0.0,Windows,10.0,https://app.prolific.com/,"en-US,en;q=0.9",r0qu20bdr,5f836dbde582bf4f666b121e,,,,,,<div style='display:flex; justify-content:center; align-items:center;'><img src='img/sign.png' style='width:140px; height:auto; margin-right:10px;' /><img src='img/map1_hospital_grass_wandering.png' style='width:460px; height:auto;' /></div>,image_trial,,50,img/map1_hospital_grass_wandering.png
8155,1,html-slider-response,10,509277,0.0-10.0,10,1,2024-07-22 20:27:14,866eb5410fc55685cfd7219525660524,75.43.50.58,"Mozilla/5.0 (Windows NT 10.0; Win64; x64) AppleWebKit/537.36 (KHTML, like Gecko) Chrome/126.0.0.0 Safari/537.36",WebKit,Chrome,126.0.0.0,Windows,10.0,https://app.prolific.com/,"en-US,en;q=0.9",r0qu20bdr,5f836dbde582bf4f666b121e,,,,,,<div style='display:flex; justify-content:center; align-items:center;'><img src='img/sign.png' style='width:140px; height:auto; margin-right:10px;' /><img src='img/map3_hospital_grass_wandering.png' style='width:460px; height:auto;' /></div>,image_trial,,50,img/map3_hospital_grass_wandering.png
11451,68,html-slider-response,11,520733,0.0-11.0,10,1,2024-07-22 20:27:14,866eb5410fc55685cfd7219525660524,75.43.50.58,"Mozilla/5.0 (Windows NT 10.0; Win64; x64) AppleWebKit/537.36 (KHTML, like Gecko) Chrome/126.0.0.0 Safari/537.36",WebKit,Chrome,126.0.0.0,Windows,10.0,https://app.prolific.com/,"en-US,en;q=0.9",r0qu20bdr,5f836dbde582bf4f666b121e,,,,,,<div style='display:flex; justify-content:center; align-items:center;'><img src='img/sign.png' style='width:140px; height:auto; margin-right:10px;' /><img src='img/map2_hospital_grass_shortest.png' style='width:460px; height:auto;' /></div>,image_trial,,50,img/map2_hospital_grass_shortest.png
14251,75,html-slider-response,12,534989,0.0-12.0,10,1,2024-07-22 20:27:14,866eb5410fc55685cfd7219525660524,75.43.50.58,"Mozilla/5.0 (Windows NT 10.0; Win64; x64) AppleWebKit/537.36 (KHTML, like Gecko) Chrome/126.0.0.0 Safari/537.36",WebKit,Chrome,126.0.0.0,Windows,10.0,https://app.prolific.com/,"en-US,en;q=0.9",r0qu20bdr,5f836dbde582bf4f666b121e,,,,,,<div style='display:flex; justify-content:center; align-items:center;'><img src='img/sign.png' style='width:140px; height:auto; margin-right:10px;' /><img src='img/map3_coffee_grass_wandering.png' style='width:460px; height:auto;' /></div>,image_trial,,50,img/map3_coffee_grass_wandering.png
9235,46,html-slider-response,13,544229,0.0-13.0,10,1,2024-07-22 20:27:14,866eb5410fc55685cfd7219525660524,75.43.50.58,"Mozilla/5.0 (Windows NT 10.0; Win64; x64) AppleWebKit/537.36 (KHTML, like Gecko) Chrome/126.0.0.0 Safari/537.36",WebKit,Chrome,126.0.0.0,Windows,10.0,https://app.prolific.com/,"en-US,en;q=0.9",r0qu20bdr,5f836dbde582bf4f666b121e,,,,,,<div style='display:flex; justify-content:center; align-items:center;'><img src='img/sign.png' style='width:140px; height:auto; margin-right:10px;' /><img src='img/map1_bus_grass_shortest.png' style='width:460px; height:auto;' /></div>,image_trial,,50,img/map1_bus_grass_shortest.png
13331,25,html-slider-response,14,557565,0.0-14.0,10,1,2024-07-22 20:27:14,866eb5410fc55685cfd7219525660524,75.43.50.58,"Mozilla/5.0 (Windows NT 10.0; Win64; x64) AppleWebKit/537.36 (KHTML, like Gecko) Chrome/126.0.0.0 Safari/537.36",WebKit,Chrome,126.0.0.0,Windows,10.0,https://app.prolific.com/,"en-US,en;q=0.9",r0qu20bdr,5f836dbde582bf4f666b121e,,,,,,<div style='display:flex; justify-content:center; align-items:center;'><img src='img/sign.png' style='width:140px; height:auto; margin-right:10px;' /><img src='img/map1_coffee_grass_shortest.png' style='width:460px; height:auto;' /></div>,image_trial,,50,img/map1_coffee_grass_shortest.png
9041,30,html-slider-response,15,566611,0.0-15.0,10,1,2024-07-22 20:27:14,866eb5410fc55685cfd7219525660524,75.43.50.58,"Mozilla/5.0 (Windows NT 10.0; Win64; x64) AppleWebKit/537.36 (KHTML, like Gecko) Chrome/126.0.0.0 Safari/537.36",WebKit,Chrome,126.0.0.0,Windows,10.0,https://app.prolific.com/,"en-US,en;q=0.9",r0qu20bdr,5f836dbde582bf4f666b121e,,,,,,<div style='display:flex; justify-content:center; align-items:center;'><img src='img/sign.png' style='width:140px; height:auto; margin-right:10px;' /><img src='img/map1_coffee_grass_wandering.png' style='width:460px; height:auto;' /></div>,image_trial,,50,img/map1_coffee_grass_wandering.png
7087,97,html-slider-response,16,573701,0.0-16.0,10,1,2024-07-22 20:27:14,866eb5410fc55685cfd7219525660524,75.43.50.58,"Mozilla/5.0 (Windows NT 10.0; Win64; x64) AppleWebKit/537.36 (KHTML, like Gecko) Chrome/126.0.0.0 Safari/537.36",WebKit,Chrome,126.0.0.0,Windows,10.0,https://app.prolific.com/,"en-US,en;q=0.9",r0qu20bdr,5f836dbde582bf4f666b121e,,,,,,<div style='display:flex; justify-content:center; align-items:center;'><img src='img/sign.png' style='width:140px; height:auto; margin-right:10px;' /><img src='img/map1_bus_sidewalk_shortest.png' style='width:460px; height:auto;' /></div>,image_trial,,50,img/map1_bus_sidewalk_shortest.png
8955,87,html-slider-response,17,582661,0.0-17.0,10,1,2024-07-22 20:27:14,866eb5410fc55685cfd7219525660524,75.43.50.58,"Mozilla/5.0 (Windows NT 10.0; Win64; x64) AppleWebKit/537.36 (KHTML, like Gecko) Chrome/126.0.0.0 Safari/537.36",WebKit,Chrome,126.0.0.0,Windows,10.0,https://app.prolific.com/,"en-US,en;q=0.9",r0qu20bdr,5f836dbde582bf4f666b121e,,,,,,<div style='display:flex; justify-content:center; align-items:center;'><img src='img/sign.png' style='width:140px; height:auto; margin-right:10px;' /><img src='img/map3_hospital_sidewalk_shortest.png' style='width:460px; height:auto;' /></div>,image_trial,,50,img/map3_hospital_sidewalk_shortest.png
11690,100,html-slider-response,18,594357,0.0-18.0,10,1,2024-07-22 20:27:14,866eb5410fc55685cfd7219525660524,75.43.50.58,"Mozilla/5.0 (Windows NT 10.0; Win64; x64) AppleWebKit/537.36 (KHTML, like Gecko) Chrome/126.0.0.0 Safari/537.36",WebKit,Chrome,126.0.0.0,Windows,10.0,https://app.prolific.com/,"en-US,en;q=0.9",r0qu20bdr,5f836dbde582bf4f666b121e,,,,,,<div style='display:flex; justify-content:center; align-items:center;'><img src='img/sign.png' style='width:140px; height:auto; margin-right:10px;' /><img src='img/map3_bus_sidewalk_shortest.png' style='width:460px; height:auto;' /></div>,image_trial,,50,img/map3_bus_sidewalk_shortest.png
8891,25,html-slider-response,19,603253,0.0-19.0,10,1,2024-07-22 20:27:14,866eb5410fc55685cfd7219525660524,75.43.50.58,"Mozilla/5.0 (Windows NT 10.0; Win64; x64) AppleWebKit/537.36 (KHTML, like Gecko) Chrome/126.0.0.0 Safari/537.36",WebKit,Chrome,126.0.0.0,Windows,10.0,https://app.prolific.com/,"en-US,en;q=0.9",r0qu20bdr,5f836dbde582bf4f666b121e,,,,,,<div style='display:flex; justify-content:center; align-items:center;'><img src='img/sign.png' style='width:140px; height:auto; margin-right:10px;' /><img src='img/map2_coffee_grass_wandering.png' style='width:460px; height:auto;' /></div>,image_trial,,50,img/map2_coffee_grass_wandering.png
17419,99,html-slider-response,20,620677,0.0-20.0,10,1,2024-07-22 20:27:14,866eb5410fc55685cfd7219525660524,75.43.50.58,"Mozilla/5.0 (Windows NT 10.0; Win64; x64) AppleWebKit/537.36 (KHTML, like Gecko) Chrome/126.0.0.0 Safari/537.36",WebKit,Chrome,126.0.0.0,Windows,10.0,https://app.prolific.com/,"en-US,en;q=0.9",r0qu20bdr,5f836dbde582bf4f666b121e,,,,,,<div style='display:flex; justify-content:center; align-items:center;'><img src='img/sign.png' style='width:140px; height:auto; margin-right:10px;' /><img src='img/map1_hospital_sidewalk_shortest.png' style='width:460px; height:auto;' /></div>,image_trial,,50,img/map1_hospital_sidewalk_shortest.png
12530,14,html-slider-response,21,633212,0.0-21.0,10,1,2024-07-22 20:27:14,866eb5410fc55685cfd7219525660524,75.43.50.58,"Mozilla/5.0 (Windows NT 10.0; Win64; x64) AppleWebKit/537.36 (KHTML, like Gecko) Chrome/126.0.0.0 Safari/537.36",WebKit,Chrome,126.0.0.0,Windows,10.0,https://app.prolific.com/,"en-US,en;q=0.9",r0qu20bdr,5f836dbde582bf4f666b121e,,,,,,<div style='display:flex; justify-content:center; align-items:center;'><img src='img/sign.png' style='width:140px; height:auto; margin-right:10px;' /><img src='img/map2_bus_grass_wandering.png' style='width:460px; height:auto;' /></div>,image_trial,,50,img/map2_bus_grass_wandering.png
6883,16,html-slider-response,22,640101,0.0-22.0,10,1,2024-07-22 20:27:14,866eb5410fc55685cfd7219525660524,75.43.50.58,"Mozilla/5.0 (Windows NT 10.0; Win64; x64) AppleWebKit/537.36 (KHTML, like Gecko) Chrome/126.0.0.0 Safari/537.36",WebKit,Chrome,126.0.0.0,Windows,10.0,https://app.prolific.com/,"en-US,en;q=0.9",r0qu20bdr,5f836dbde582bf4f666b121e,,,,,,<div style='display:flex; justify-content:center; align-items:center;'><img src='img/sign.png' style='width:140px; height:auto; margin-right:10px;' /><img src='img/map1_bus_grass_wandering.png' style='width:460px; height:auto;' /></div>,image_trial,,50,img/map1_bus_grass_wandering.png
9163,40,html-slider-response,23,649269,0.0-23.0,10,1,2024-07-22 20:27:14,866eb5410fc55685cfd7219525660524,75.43.50.58,"Mozilla/5.0 (Windows NT 10.0; Win64; x64) AppleWebKit/537.36 (KHTML, like Gecko) Chrome/126.0.0.0 Safari/537.36",WebKit,Chrome,126.0.0.0,Windows,10.0,https://app.prolific.com/,"en-US,en;q=0.9",r0qu20bdr,5f836dbde582bf4f666b121e,,,,,,<div style='display:flex; justify-content:center; align-items:center;'><img src='img/sign.png' style='width:140px; height:auto; margin-right:10px;' /><img src='img/map2_hospital_grass_wandering.png' style='width:460px; height:auto;' /></div>,image_trial,,50,img/map2_hospital_grass_wandering.png
7569,100,html-slider-response,24,656844,0.0-24.0,10,1,2024-07-22 20:27:14,866eb5410fc55685cfd7219525660524,75.43.50.58,"Mozilla/5.0 (Windows NT 10.0; Win64; x64) AppleWebKit/537.36 (KHTML, like Gecko) Chrome/126.0.0.0 Safari/537.36",WebKit,Chrome,126.0.0.0,Windows,10.0,https://app.prolific.com/,"en-US,en;q=0.9",r0qu20bdr,5f836dbde582bf4f666b121e,,,,,,<div style='display:flex; justify-content:center; align-items:center;'><img src='img/sign.png' style='width:140px; height:auto; margin-right:10px;' /><img src='img/map2_coffee_sidewalk_shortest.png' style='width:460px; height:auto;' /></div>,image_trial,,50,img/map2_coffee_sidewalk_shortest.png
6435,100,html-slider-response,25,663285,0.0-25.0,10,1,2024-07-22 20:27:14,866eb5410fc55685cfd7219525660524,75.43.50.58,"Mozilla/5.0 (Windows NT 10.0; Win64; x64) AppleWebKit/537.36 (KHTML, like Gecko) Chrome/126.0.0.0 Safari/537.36",WebKit,Chrome,126.0.0.0,Windows,10.0,https://app.prolific.com/,"en-US,en;q=0.9",r0qu20bdr,5f836dbde582bf4f666b121e,,,,,,<div style='display:flex; justify-content:center; align-items:center;'><img src='img/sign.png' style='width:140px; height:auto; margin-right:10px;' /><img src='img/map2_bus_sidewalk_shortest.png' style='width:460px; height:auto;' /></div>,image_trial,,50,img/map2_bus_sidewalk_shortest.png
8451,15,html-slider-response,26,671741,0.0-26.0,10,1,2024-07-22 20:27:14,866eb5410fc55685cfd7219525660524,75.43.50.58,"Mozilla/5.0 (Windows NT 10.0; Win64; x64) AppleWebKit/537.36 (KHTML, like Gecko) Chrome/126.0.0.0 Safari/537.36",WebKit,Chrome,126.0.0.0,Windows,10.0,https://app.prolific.com/,"en-US,en;q=0.9",r0qu20bdr,5f836dbde582bf4f666b121e,,,,,,<div style='display:flex; justify-content:center; align-items:center;'><img src='img/sign.png' style='width:140px; height:auto; margin-right:10px;' /><img src='img/map3_coffee_grass_shortest.png' style='width:460px; height:auto;' /></div>,image_trial,,50,img/map3_coffee_grass_shortest.png
9403,49,html-slider-response,27,681149,0.0-27.0,10,1,2024-07-22 20:27:14,866eb5410fc55685cfd7219525660524,75.43.50.58,"Mozilla/5.0 (Windows NT 10.0; Win64; x64) AppleWebKit/537.36 (KHTML, like Gecko) Chrome/126.0.0.0 Safari/537.36",WebKit,Chrome,126.0.0.0,Windows,10.0,https://app.prolific.com/,"en-US,en;q=0.9",r0qu20bdr,5f836dbde582bf4f666b121e,,,,,,<div style='display:flex; justify-content:center; align-items:center;'><img src='img/sign.png' style='width:140px; height:auto; margin-right:10px;' /><img src='img/map3_hospital_grass_shortest.png' style='width:460px; height:auto;' /></div>,image_trial,,50,img/map3_hospital_grass_shortest.png
7938,0,html-slider-response,28,689093,0.0-28.0,10,1,2024-07-22 20:27:14,866eb5410fc55685cfd7219525660524,75.43.50.58,"Mozilla/5.0 (Windows NT 10.0; Win64; x64) AppleWebKit/537.36 (KHTML, like Gecko) Chrome/126.0.0.0 Safari/537.36",WebKit,Chrome,126.0.0.0,Windows,10.0,https://app.prolific.com/,"en-US,en;q=0.9",r0qu20bdr,5f836dbde582bf4f666b121e,,,,,,<div style='display:flex; justify-content:center; align-items:center;'><img src='img/sign.png' style='width:140px; height:auto; margin-right:10px;' /><img src='img/map3_bus_grass_shortest.png' style='width:460px; height:auto;' /></div>,image_trial,,50,img/map3_bus_grass_shortest.png
7674,80,html-slider-response,29,696772,0.0-29.0,10,1,2024-07-22 20:27:14,866eb5410fc55685cfd7219525660524,75.43.50.58,"Mozilla/5.0 (Windows NT 10.0; Win64; x64) AppleWebKit/537.36 (KHTML, like Gecko) Chrome/126.0.0.0 Safari/537.36",WebKit,Chrome,126.0.0.0,Windows,10.0,https://app.prolific.com/,"en-US,en;q=0.9",r0qu20bdr,5f836dbde582bf4f666b121e,,,,,,<div style='display:flex; justify-content:center; align-items:center;'><img src='img/sign.png' style='width:140px; height:auto; margin-right:10px;' /><img src='img/map1_coffee_sidewalk_shortest.png' style='width:460px; height:auto;' /></div>,image_trial,,50,img/map1_coffee_sidewalk_shortest.png
8258,20,html-slider-response,30,705036,0.0-30.0,10,1,2024-07-22 20:27:14,866eb5410fc55685cfd7219525660524,75.43.50.58,"Mozilla/5.0 (Windows NT 10.0; Win64; x64) AppleWebKit/537.36 (KHTML, like Gecko) Chrome/126.0.0.0 Safari/537.36",WebKit,Chrome,126.0.0.0,Windows,10.0,https://app.prolific.com/,"en-US,en;q=0.9",r0qu20bdr,5f836dbde582bf4f666b121e,,,,,,<div style='display:flex; justify-content:center; align-items:center;'><img src='img/sign.png' style='width:140px; height:auto; margin-right:10px;' /><img src='img/map2_bus_grass_shortest.png' style='width:460px; height:auto;' /></div>,image_trial,,50,img/map2_bus_grass_shortest.png
9333,10,html-slider-response,31,714372,0.0-31.0,10,1,2024-07-22 20:27:14,866eb5410fc55685cfd7219525660524,75.43.50.58,"Mozilla/5.0 (Windows NT 10.0; Win64; x64) AppleWebKit/537.36 (KHTML, like Gecko) Chrome/126.0.0.0 Safari/537.36",WebKit,Chrome,126.0.0.0,Windows,10.0,https://app.prolific.com/,"en-US,en;q=0.9",r0qu20bdr,5f836dbde582bf4f666b121e,,,,,,<div style='display:flex; justify-content:center; align-items:center;'><img src='img/sign.png' style='width:140px; height:auto; margin-right:10px;' /><img src='img/map1_hospital_grass_shortest.png' style='width:460px; height:auto;' /></div>,image_trial,,50,img/map1_hospital_grass_shortest.png
6331,100,html-slider-response,32,720709,0.0-32.0,10,1,2024-07-22 20:27:14,866eb5410fc55685cfd7219525660524,75.43.50.58,"Mozilla/5.0 (Windows NT 10.0; Win64; x64) AppleWebKit/537.36 (KHTML, like Gecko) Chrome/126.0.0.0 Safari/537.36",WebKit,Chrome,126.0.0.0,Windows,10.0,https://app.prolific.com/,"en-US,en;q=0.9",r0qu20bdr,5f836dbde582bf4f666b121e,,,,,,<div style='display:flex; justify-content:center; align-items:center;'><img src='img/sign.png' style='width:140px; height:auto; margin-right:10px;' /><img src='img/map3_coffee_sidewalk_shortest.png' style='width:460px; height:auto;' /></div>,image_trial,,50,img/map3_coffee_sidewalk_shortest.png
6546,100,html-slider-response,33,727261,0.0-33.0,10,1,2024-07-22 20:27:14,866eb5410fc55685cfd7219525660524,75.43.50.58,"Mozilla/5.0 (Windows NT 10.0; Win64; x64) AppleWebKit/537.36 (KHTML, like Gecko) Chrome/126.0.0.0 Safari/537.36",WebKit,Chrome,126.0.0.0,Windows,10.0,https://app.prolific.com/,"en-US,en;q=0.9",r0qu20bdr,5f836dbde582bf4f666b121e,,,,,,<div style='display:flex; justify-content:center; align-items:center;'><img src='img/sign.png' style='width:140px; height:auto; margin-right:10px;' /><img src='img/map2_hospital_sidewalk_shortest.png' style='width:460px; height:auto;' /></div>,image_trial,,50,img/map2_hospital_sidewalk_shortest.png
14940,"[{""name"":""understand"",""value"":""yes""},{""name"":""problems"",""value"":""no""},{""name"":""age"",""value"":""25""},{""name"":""gender"",""value"":""female""},{""name"":""comments"",""value"":""no""}]",survey-html-form,34,742208,0.0-34.0,10,1,2024-07-22 20:27:14,866eb5410fc55685cfd7219525660524,75.43.50.58,"Mozilla/5.0 (Windows NT 10.0; Win64; x64) AppleWebKit/537.36 (KHTML, like Gecko) Chrome/126.0.0.0 Safari/537.36",WebKit,Chrome,126.0.0.0,Windows,10.0,https://app.prolific.com/,"en-US,en;q=0.9",r0qu20bdr,5f836dbde582bf4f666b121e,,,,,,,debrief,,,
9034,"{""Q0"":""r0qu20bdr""}",survey-text,35,751262,0.0-35.0,10,1,2024-07-22 20:27:14,866eb5410fc55685cfd7219525660524,75.43.50.58,"Mozilla/5.0 (Windows NT 10.0; Win64; x64) AppleWebKit/537.36 (KHTML, like Gecko) Chrome/126.0.0.0 Safari/537.36",WebKit,Chrome,126.0.0.0,Windows,10.0,https://app.prolific.com/,"en-US,en;q=0.9",r0qu20bdr,5f836dbde582bf4f666b121e,,,,,,,,,,
13263,"{""prolific_id"":""6637c147df70600055edb172""}",survey-text,0,13287,0.0-0.0,14,1,2024-07-22 20:28:45,866eb5410fc55685cfd7219525660524,216.164.132.181,"Mozilla/5.0 (Macintosh; Intel Mac OS X 10_15_7) AppleWebKit/605.1.15 (KHTML, like Gecko) Version/16.2 Safari/605.1.15",Macintosh,Safari,16.2,OS X,10_15_7,https://app.prolific.com/,"en-US,en;q=0.9",kc9jrp9tt,6637c147df70600055edb172,,,,,,,,,,
,,preload,1,13764,0.0-1.0,14,1,2024-07-22 20:28:45,866eb5410fc55685cfd7219525660524,216.164.132.181,"Mozilla/5.0 (Macintosh; Intel Mac OS X 10_15_7) AppleWebKit/605.1.15 (KHTML, like Gecko) Version/16.2 Safari/605.1.15",Macintosh,Safari,16.2,OS X,10_15_7,https://app.prolific.com/,"en-US,en;q=0.9",kc9jrp9tt,6637c147df70600055edb172,true,false,[],[],[],,,,,
1928, ,html-keyboard-response,2,15695,0.0-2.0,14,1,2024-07-22 20:28:45,866eb5410fc55685cfd7219525660524,216.164.132.181,"Mozilla/5.0 (Macintosh; Intel Mac OS X 10_15_7) AppleWebKit/605.1.15 (KHTML, like Gecko) Version/16.2 Safari/605.1.15",Macintosh,Safari,16.2,OS X,10_15_7,https://app.prolific.com/,"en-US,en;q=0.9",kc9jrp9tt,6637c147df70600055edb172,,,,,,"<p style=""text-align:center;width:700px;""> Welcome to the experiment! This study takes most people around 10 minutes to complete. Please complete it in one sitting.</p>",,,,
14384,y,html-keyboard-response,3,30081,0.0-3.0,14,1,2024-07-22 20:28:45,866eb5410fc55685cfd7219525660524,216.164.132.181,"Mozilla/5.0 (Macintosh; Intel Mac OS X 10_15_7) AppleWebKit/605.1.15 (KHTML, like Gecko) Version/16.2 Safari/605.1.15",Macintosh,Safari,16.2,OS X,10_15_7,https://app.prolific.com/,"en-US,en;q=0.9",kc9jrp9tt,6637c147df70600055edb172,,,,,,"<p style = ""font-size:16px;"">MIT Computational Cognitive Science Lab</p><h4>Press the 'y' key to consent.</h4><div style = ""background-color:#f2f2f2;""><h3>Informed Consent Form</h3><div style=""text-align:left;width:700px;""><p style = ""font-size:16px;"">In this study, you will be asked to read a set of instructions that describe a particular scenario, and you will then be asked to perform a simple task relating to that scenario. There will also be comprehension and attention checks. Participants who do not answer these checks correctly cannot be approved. In order to get credit for this study, you must read all the questions fully and answer honestly. You may only complete this study once. If you complete this study multiple times, you will be rejected.</p><p style = ""font-size:16px;"">This study is part of a MIT scientific research project. Your decision to complete this study is voluntary. There is no way for us to identify you. The only information we will have, in addition to your responses, is the time at which you completed the survey. The results of the research may be presented at scientific meetings or published in scientific journals. Pressing the ""Y"" key indicates that you are at least 18 years of age, and agree to complete this study voluntarily. Press the ""Y"" key to confirm your agreement and continue.</p></div>",,,,
4630,"{""instructions1"":""park""}",survey-text,4,34724,0.0-4.0,14,1,2024-07-22 20:28:45,866eb5410fc55685cfd7219525660524,216.164.132.181,"Mozilla/5.0 (Macintosh; Intel Mac OS X 10_15_7) AppleWebKit/605.1.15 (KHTML, like Gecko) Version/16.2 Safari/605.1.15",Macintosh,Safari,16.2,OS X,10_15_7,https://app.prolific.com/,"en-US,en;q=0.9",kc9jrp9tt,6637c147df70600055edb172,,,,,,,instructions,,,
3236,"{""instructions2"":""yes""}",survey-text,5,37969,0.0-5.0,14,1,2024-07-22 20:28:45,866eb5410fc55685cfd7219525660524,216.164.132.181,"Mozilla/5.0 (Macintosh; Intel Mac OS X 10_15_7) AppleWebKit/605.1.15 (KHTML, like Gecko) Version/16.2 Safari/605.1.15",Macintosh,Safari,16.2,OS X,10_15_7,https://app.prolific.com/,"en-US,en;q=0.9",kc9jrp9tt,6637c147df70600055edb172,,,,,,,instructions,,,
17023,"{""map_attention"":""A person traveling through the park"",""squares_attention"":""Two terrains (grass and sidewalk) and three destinations (urgent care, bus stop, coffee shop)"",""answer_attention"":""Based on your own best judgment based on the map that you see, as well as your <i>own</i> common sense intuitions about towns and these kinds of destinations in general.""}",survey-multi-choice,6,54995,0.0-6.0,14,1,2024-07-22 20:28:45,866eb5410fc55685cfd7219525660524,216.164.132.181,"Mozilla/5.0 (Macintosh; Intel Mac OS X 10_15_7) AppleWebKit/605.1.15 (KHTML, like Gecko) Version/16.2 Safari/605.1.15",Macintosh,Safari,16.2,OS X,10_15_7,https://app.prolific.com/,"en-US,en;q=0.9",kc9jrp9tt,6637c147df70600055edb172,,,,,,,,"[0,1,2]",,
16367,88,html-slider-response,7,71367,0.0-7.0,14,1,2024-07-22 20:28:45,866eb5410fc55685cfd7219525660524,216.164.132.181,"Mozilla/5.0 (Macintosh; Intel Mac OS X 10_15_7) AppleWebKit/605.1.15 (KHTML, like Gecko) Version/16.2 Safari/605.1.15",Macintosh,Safari,16.2,OS X,10_15_7,https://app.prolific.com/,"en-US,en;q=0.9",kc9jrp9tt,6637c147df70600055edb172,,,,,,<div style='display:flex; justify-content:center; align-items:center;'><img src='img/sign.png' style='width:140px; height:auto; margin-right:10px;' /><img src='img/map2_hospital_sidewalk_shortest.png' style='width:460px; height:auto;' /></div>,image_trial,,50,img/map2_hospital_sidewalk_shortest.png
2513,7,html-slider-response,8,73884,0.0-8.0,14,1,2024-07-22 20:28:45,866eb5410fc55685cfd7219525660524,216.164.132.181,"Mozilla/5.0 (Macintosh; Intel Mac OS X 10_15_7) AppleWebKit/605.1.15 (KHTML, like Gecko) Version/16.2 Safari/605.1.15",Macintosh,Safari,16.2,OS X,10_15_7,https://app.prolific.com/,"en-US,en;q=0.9",kc9jrp9tt,6637c147df70600055edb172,,,,,,<div style='display:flex; justify-content:center; align-items:center;'><img src='img/sign.png' style='width:140px; height:auto; margin-right:10px;' /><img src='img/map1_hospital_grass_shortest.png' style='width:460px; height:auto;' /></div>,image_trial,,50,img/map1_hospital_grass_shortest.png
2664,98,html-slider-response,9,76549,0.0-9.0,14,1,2024-07-22 20:28:45,866eb5410fc55685cfd7219525660524,216.164.132.181,"Mozilla/5.0 (Macintosh; Intel Mac OS X 10_15_7) AppleWebKit/605.1.15 (KHTML, like Gecko) Version/16.2 Safari/605.1.15",Macintosh,Safari,16.2,OS X,10_15_7,https://app.prolific.com/,"en-US,en;q=0.9",kc9jrp9tt,6637c147df70600055edb172,,,,,,<div style='display:flex; justify-content:center; align-items:center;'><img src='img/sign.png' style='width:140px; height:auto; margin-right:10px;' /><img src='img/map1_bus_sidewalk_shortest.png' style='width:460px; height:auto;' /></div>,image_trial,,50,img/map1_bus_sidewalk_shortest.png
2381,9,html-slider-response,10,78933,0.0-10.0,14,1,2024-07-22 20:28:45,866eb5410fc55685cfd7219525660524,216.164.132.181,"Mozilla/5.0 (Macintosh; Intel Mac OS X 10_15_7) AppleWebKit/605.1.15 (KHTML, like Gecko) Version/16.2 Safari/605.1.15",Macintosh,Safari,16.2,OS X,10_15_7,https://app.prolific.com/,"en-US,en;q=0.9",kc9jrp9tt,6637c147df70600055edb172,,,,,,<div style='display:flex; justify-content:center; align-items:center;'><img src='img/sign.png' style='width:140px; height:auto; margin-right:10px;' /><img src='img/map3_hospital_grass_wandering.png' style='width:460px; height:auto;' /></div>,image_trial,,50,img/map3_hospital_grass_wandering.png
