rt,response,trial_type,trial_index,time_elapsed,internal_node_id,run_id,condition,recorded_at,source_code_version,ip,user_agent,device,browser,browser_version,platform,platform_version,referer,accept_language,ID,prolific_id,success,timeout,failed_images,failed_audio,failed_video,stimulus,trial_category,question_order,slider_start,stimulus_name
13248,"{""prolific_id"":""664769791843dcc7d0f6cc1e""}",survey-text,0,13272,0.0-0.0,12,1,2024-07-18 20:14:09,f601377285a5b1d9cf715ba604643eb5,38.186.160.35,"Mozilla/5.0 (Windows NT 10.0; Win64; x64) AppleWebKit/537.36 (KHTML, like Gecko) Chrome/125.0.0.0 Safari/537.36",WebKit,Chrome,125.0.0.0,Windows,10.0,https://app.prolific.com/,"en-US,en;q=0.9",cwvomor9l,664769791843dcc7d0f6cc1e,,,,,,,,,,
,,preload,1,25358,0.0-1.0,12,1,2024-07-18 20:14:09,f601377285a5b1d9cf715ba604643eb5,38.186.160.35,"Mozilla/5.0 (Windows NT 10.0; Win64; x64) AppleWebKit/537.36 (KHTML, like Gecko) Chrome/125.0.0.0 Safari/537.36",WebKit,Chrome,125.0.0.0,Windows,10.0,https://app.prolific.com/,"en-US,en;q=0.9",cwvomor9l,664769791843dcc7d0f6cc1e,true,false,[],[],[],,,,,
6883, ,html-keyboard-response,2,32243,0.0-2.0,12,1,2024-07-18 20:14:09,f601377285a5b1d9cf715ba604643eb5,38.186.160.35,"Mozilla/5.0 (Windows NT 10.0; Win64; x64) AppleWebKit/537.36 (KHTML, like Gecko) Chrome/125.0.0.0 Safari/537.36",WebKit,Chrome,125.0.0.0,Windows,10.0,https://app.prolific.com/,"en-US,en;q=0.9",cwvomor9l,664769791843dcc7d0f6cc1e,,,,,,"<p style=""text-align:center;width:700px;""> Welcome to the experiment! This study takes most people around 10 minutes to complete. Please complete it in one sitting.</p>",,,,
5966,y,html-keyboard-response,3,38210,0.0-3.0,12,1,2024-07-18 20:14:09,f601377285a5b1d9cf715ba604643eb5,38.186.160.35,"Mozilla/5.0 (Windows NT 10.0; Win64; x64) AppleWebKit/537.36 (KHTML, like Gecko) Chrome/125.0.0.0 Safari/537.36",WebKit,Chrome,125.0.0.0,Windows,10.0,https://app.prolific.com/,"en-US,en;q=0.9",cwvomor9l,664769791843dcc7d0f6cc1e,,,,,,"<p style = ""font-size:16px;"">MIT Computational Cognitive Science Lab</p><h4>Press the 'y' key to consent.</h4><div style = ""background-color:#f2f2f2;""><h3>Informed Consent Form</h3><div style=""text-align:left;width:700px;""><p style = ""font-size:16px;"">In this study, you will be asked to read a set of instructions that describe a particular scenario, and you will then be asked to perform a simple task relating to that scenario. There will also be comprehension and attention checks. Participants who do not answer these checks correctly cannot be approved. In order to get credit for this study, you must read all the questions fully and answer honestly. You may only complete this study once. If you complete this study multiple times, you will be rejected.</p><p style = ""font-size:16px;"">This study is part of a MIT scientific research project. Your decision to complete this study is voluntary. There is no way for us to identify you. The only information we will have, in addition to your responses, is the time at which you completed the survey. The results of the research may be presented at scientific meetings or published in scientific journals. Pressing the ""Y"" key indicates that you are at least 18 years of age, and agree to complete this study voluntarily. Press the ""Y"" key to confirm your agreement and continue.</p></div>",,,,
47484,"{""instructions1"":""3 common destinations""}",survey-text,4,85731,0.0-4.0,12,1,2024-07-18 20:14:09,f601377285a5b1d9cf715ba604643eb5,38.186.160.35,"Mozilla/5.0 (Windows NT 10.0; Win64; x64) AppleWebKit/537.36 (KHTML, like Gecko) Chrome/125.0.0.0 Safari/537.36",WebKit,Chrome,125.0.0.0,Windows,10.0,https://app.prolific.com/,"en-US,en;q=0.9",cwvomor9l,664769791843dcc7d0f6cc1e,,,,,,,instructions,,,
53308,"{""instructions2"":""Yes""}",survey-text,5,139051,0.0-5.0,12,1,2024-07-18 20:14:09,f601377285a5b1d9cf715ba604643eb5,38.186.160.35,"Mozilla/5.0 (Windows NT 10.0; Win64; x64) AppleWebKit/537.36 (KHTML, like Gecko) Chrome/125.0.0.0 Safari/537.36",WebKit,Chrome,125.0.0.0,Windows,10.0,https://app.prolific.com/,"en-US,en;q=0.9",cwvomor9l,664769791843dcc7d0f6cc1e,,,,,,,instructions,,,
77081,"{""map_attention"":""A person travelling through the park"",""squares_attention"":""Two terrains (grass and sidewalk) and three destinations (school, train station, ice cream shop)"",""answer_attention"":""Based on your own best judgment based on the map that you see, as well as your <i>own</i> common sense intuitions about towns and these kinds of destinations in general.""}",survey-multi-choice,6,216136,0.0-6.0,12,1,2024-07-18 20:14:09,f601377285a5b1d9cf715ba604643eb5,38.186.160.35,"Mozilla/5.0 (Windows NT 10.0; Win64; x64) AppleWebKit/537.36 (KHTML, like Gecko) Chrome/125.0.0.0 Safari/537.36",WebKit,Chrome,125.0.0.0,Windows,10.0,https://app.prolific.com/,"en-US,en;q=0.9",cwvomor9l,664769791843dcc7d0f6cc1e,,,,,,,,"[0,1,2]",,
20977,100,html-slider-response,7,237118,0.0-7.0,12,1,2024-07-18 20:14:09,f601377285a5b1d9cf715ba604643eb5,38.186.160.35,"Mozilla/5.0 (Windows NT 10.0; Win64; x64) AppleWebKit/537.36 (KHTML, like Gecko) Chrome/125.0.0.0 Safari/537.36",WebKit,Chrome,125.0.0.0,Windows,10.0,https://app.prolific.com/,"en-US,en;q=0.9",cwvomor9l,664769791843dcc7d0f6cc1e,,,,,,<div style='display:flex; justify-content:center; align-items:center;'><img src='img/sign.png' style='width:140px; height:auto; margin-right:10px;' /><img src='img/map2_hospital_sidewalk_shortest.png' style='width:460px; height:auto;' /></div>,image_trial,,50,img/map2_hospital_sidewalk_shortest.png
12096,0,html-slider-response,8,249216,0.0-8.0,12,1,2024-07-18 20:14:09,f601377285a5b1d9cf715ba604643eb5,38.186.160.35,"Mozilla/5.0 (Windows NT 10.0; Win64; x64) AppleWebKit/537.36 (KHTML, like Gecko) Chrome/125.0.0.0 Safari/537.36",WebKit,Chrome,125.0.0.0,Windows,10.0,https://app.prolific.com/,"en-US,en;q=0.9",cwvomor9l,664769791843dcc7d0f6cc1e,,,,,,<div style='display:flex; justify-content:center; align-items:center;'><img src='img/sign.png' style='width:140px; height:auto; margin-right:10px;' /><img src='img/map1_coffee_grass_wandering.png' style='width:460px; height:auto;' /></div>,image_trial,,50,img/map1_coffee_grass_wandering.png
19437,0,html-slider-response,9,268655,0.0-9.0,12,1,2024-07-18 20:14:09,f601377285a5b1d9cf715ba604643eb5,38.186.160.35,"Mozilla/5.0 (Windows NT 10.0; Win64; x64) AppleWebKit/537.36 (KHTML, like Gecko) Chrome/125.0.0.0 Safari/537.36",WebKit,Chrome,125.0.0.0,Windows,10.0,https://app.prolific.com/,"en-US,en;q=0.9",cwvomor9l,664769791843dcc7d0f6cc1e,,,,,,<div style='display:flex; justify-content:center; align-items:center;'><img src='img/sign.png' style='width:140px; height:auto; margin-right:10px;' /><img src='img/map3_bus_grass_shortest.png' style='width:460px; height:auto;' /></div>,image_trial,,50,img/map3_bus_grass_shortest.png
11914,0,html-slider-response,10,280572,0.0-10.0,12,1,2024-07-18 20:14:09,f601377285a5b1d9cf715ba604643eb5,38.186.160.35,"Mozilla/5.0 (Windows NT 10.0; Win64; x64) AppleWebKit/537.36 (KHTML, like Gecko) Chrome/125.0.0.0 Safari/537.36",WebKit,Chrome,125.0.0.0,Windows,10.0,https://app.prolific.com/,"en-US,en;q=0.9",cwvomor9l,664769791843dcc7d0f6cc1e,,,,,,<div style='display:flex; justify-content:center; align-items:center;'><img src='img/sign.png' style='width:140px; height:auto; margin-right:10px;' /><img src='img/map2_hospital_grass_shortest.png' style='width:460px; height:auto;' /></div>,image_trial,,50,img/map2_hospital_grass_shortest.png
8553,0,html-slider-response,11,289127,0.0-11.0,12,1,2024-07-18 20:14:09,f601377285a5b1d9cf715ba604643eb5,38.186.160.35,"Mozilla/5.0 (Windows NT 10.0; Win64; x64) AppleWebKit/537.36 (KHTML, like Gecko) Chrome/125.0.0.0 Safari/537.36",WebKit,Chrome,125.0.0.0,Windows,10.0,https://app.prolific.com/,"en-US,en;q=0.9",cwvomor9l,664769791843dcc7d0f6cc1e,,,,,,<div style='display:flex; justify-content:center; align-items:center;'><img src='img/sign.png' style='width:140px; height:auto; margin-right:10px;' /><img src='img/map3_coffee_grass_shortest.png' style='width:460px; height:auto;' /></div>,image_trial,,50,img/map3_coffee_grass_shortest.png
15264,69,html-slider-response,12,304393,0.0-12.0,12,1,2024-07-18 20:14:09,f601377285a5b1d9cf715ba604643eb5,38.186.160.35,"Mozilla/5.0 (Windows NT 10.0; Win64; x64) AppleWebKit/537.36 (KHTML, like Gecko) Chrome/125.0.0.0 Safari/537.36",WebKit,Chrome,125.0.0.0,Windows,10.0,https://app.prolific.com/,"en-US,en;q=0.9",cwvomor9l,664769791843dcc7d0f6cc1e,,,,,,<div style='display:flex; justify-content:center; align-items:center;'><img src='img/sign.png' style='width:140px; height:auto; margin-right:10px;' /><img src='img/map1_hospital_grass_shortest.png' style='width:460px; height:auto;' /></div>,image_trial,,50,img/map1_hospital_grass_shortest.png
6038,100,html-slider-response,13,310435,0.0-13.0,12,1,2024-07-18 20:14:09,f601377285a5b1d9cf715ba604643eb5,38.186.160.35,"Mozilla/5.0 (Windows NT 10.0; Win64; x64) AppleWebKit/537.36 (KHTML, like Gecko) Chrome/125.0.0.0 Safari/537.36",WebKit,Chrome,125.0.0.0,Windows,10.0,https://app.prolific.com/,"en-US,en;q=0.9",cwvomor9l,664769791843dcc7d0f6cc1e,,,,,,<div style='display:flex; justify-content:center; align-items:center;'><img src='img/sign.png' style='width:140px; height:auto; margin-right:10px;' /><img src='img/map3_bus_sidewalk_shortest.png' style='width:460px; height:auto;' /></div>,image_trial,,50,img/map3_bus_sidewalk_shortest.png
12096,0,html-slider-response,14,322534,0.0-14.0,12,1,2024-07-18 20:14:09,f601377285a5b1d9cf715ba604643eb5,38.186.160.35,"Mozilla/5.0 (Windows NT 10.0; Win64; x64) AppleWebKit/537.36 (KHTML, like Gecko) Chrome/125.0.0.0 Safari/537.36",WebKit,Chrome,125.0.0.0,Windows,10.0,https://app.prolific.com/,"en-US,en;q=0.9",cwvomor9l,664769791843dcc7d0f6cc1e,,,,,,<div style='display:flex; justify-content:center; align-items:center;'><img src='img/sign.png' style='width:140px; height:auto; margin-right:10px;' /><img src='img/map2_coffee_grass_shortest.png' style='width:460px; height:auto;' /></div>,image_trial,,50,img/map2_coffee_grass_shortest.png
5567,100,html-slider-response,15,328103,0.0-15.0,12,1,2024-07-18 20:14:09,f601377285a5b1d9cf715ba604643eb5,38.186.160.35,"Mozilla/5.0 (Windows NT 10.0; Win64; x64) AppleWebKit/537.36 (KHTML, like Gecko) Chrome/125.0.0.0 Safari/537.36",WebKit,Chrome,125.0.0.0,Windows,10.0,https://app.prolific.com/,"en-US,en;q=0.9",cwvomor9l,664769791843dcc7d0f6cc1e,,,,,,<div style='display:flex; justify-content:center; align-items:center;'><img src='img/sign.png' style='width:140px; height:auto; margin-right:10px;' /><img src='img/map2_bus_sidewalk_shortest.png' style='width:460px; height:auto;' /></div>,image_trial,,50,img/map2_bus_sidewalk_shortest.png
9295,0,html-slider-response,16,337401,0.0-16.0,12,1,2024-07-18 20:14:09,f601377285a5b1d9cf715ba604643eb5,38.186.160.35,"Mozilla/5.0 (Windows NT 10.0; Win64; x64) AppleWebKit/537.36 (KHTML, like Gecko) Chrome/125.0.0.0 Safari/537.36",WebKit,Chrome,125.0.0.0,Windows,10.0,https://app.prolific.com/,"en-US,en;q=0.9",cwvomor9l,664769791843dcc7d0f6cc1e,,,,,,<div style='display:flex; justify-content:center; align-items:center;'><img src='img/sign.png' style='width:140px; height:auto; margin-right:10px;' /><img src='img/map3_hospital_grass_wandering.png' style='width:460px; height:auto;' /></div>,image_trial,,50,img/map3_hospital_grass_wandering.png
5549,100,html-slider-response,17,342953,0.0-17.0,12,1,2024-07-18 20:14:09,f601377285a5b1d9cf715ba604643eb5,38.186.160.35,"Mozilla/5.0 (Windows NT 10.0; Win64; x64) AppleWebKit/537.36 (KHTML, like Gecko) Chrome/125.0.0.0 Safari/537.36",WebKit,Chrome,125.0.0.0,Windows,10.0,https://app.prolific.com/,"en-US,en;q=0.9",cwvomor9l,664769791843dcc7d0f6cc1e,,,,,,<div style='display:flex; justify-content:center; align-items:center;'><img src='img/sign.png' style='width:140px; height:auto; margin-right:10px;' /><img src='img/map2_coffee_sidewalk_shortest.png' style='width:460px; height:auto;' /></div>,image_trial,,50,img/map2_coffee_sidewalk_shortest.png
5422,0,html-slider-response,18,348377,0.0-18.0,12,1,2024-07-18 20:14:09,f601377285a5b1d9cf715ba604643eb5,38.186.160.35,"Mozilla/5.0 (Windows NT 10.0; Win64; x64) AppleWebKit/537.36 (KHTML, like Gecko) Chrome/125.0.0.0 Safari/537.36",WebKit,Chrome,125.0.0.0,Windows,10.0,https://app.prolific.com/,"en-US,en;q=0.9",cwvomor9l,664769791843dcc7d0f6cc1e,,,,,,<div style='display:flex; justify-content:center; align-items:center;'><img src='img/sign.png' style='width:140px; height:auto; margin-right:10px;' /><img src='img/map3_hospital_grass_shortest.png' style='width:460px; height:auto;' /></div>,image_trial,,50,img/map3_hospital_grass_shortest.png
4690,100,html-slider-response,19,353069,0.0-19.0,12,1,2024-07-18 20:14:09,f601377285a5b1d9cf715ba604643eb5,38.186.160.35,"Mozilla/5.0 (Windows NT 10.0; Win64; x64) AppleWebKit/537.36 (KHTML, like Gecko) Chrome/125.0.0.0 Safari/537.36",WebKit,Chrome,125.0.0.0,Windows,10.0,https://app.prolific.com/,"en-US,en;q=0.9",cwvomor9l,664769791843dcc7d0f6cc1e,,,,,,<div style='display:flex; justify-content:center; align-items:center;'><img src='img/sign.png' style='width:140px; height:auto; margin-right:10px;' /><img src='img/map1_hospital_sidewalk_shortest.png' style='width:460px; height:auto;' /></div>,image_trial,,50,img/map1_hospital_sidewalk_shortest.png
6560,0,html-slider-response,20,359633,0.0-20.0,12,1,2024-07-18 20:14:09,f601377285a5b1d9cf715ba604643eb5,38.186.160.35,"Mozilla/5.0 (Windows NT 10.0; Win64; x64) AppleWebKit/537.36 (KHTML, like Gecko) Chrome/125.0.0.0 Safari/537.36",WebKit,Chrome,125.0.0.0,Windows,10.0,https://app.prolific.com/,"en-US,en;q=0.9",cwvomor9l,664769791843dcc7d0f6cc1e,,,,,,<div style='display:flex; justify-content:center; align-items:center;'><img src='img/sign.png' style='width:140px; height:auto; margin-right:10px;' /><img src='img/map2_coffee_grass_wandering.png' style='width:460px; height:auto;' /></div>,image_trial,,50,img/map2_coffee_grass_wandering.png
4818,0,html-slider-response,21,364453,0.0-21.0,12,1,2024-07-18 20:14:09,f601377285a5b1d9cf715ba604643eb5,38.186.160.35,"Mozilla/5.0 (Windows NT 10.0; Win64; x64) AppleWebKit/537.36 (KHTML, like Gecko) Chrome/125.0.0.0 Safari/537.36",WebKit,Chrome,125.0.0.0,Windows,10.0,https://app.prolific.com/,"en-US,en;q=0.9",cwvomor9l,664769791843dcc7d0f6cc1e,,,,,,<div style='display:flex; justify-content:center; align-items:center;'><img src='img/sign.png' style='width:140px; height:auto; margin-right:10px;' /><img src='img/map2_bus_grass_shortest.png' style='width:460px; height:auto;' /></div>,image_trial,,50,img/map2_bus_grass_shortest.png
5565,0,html-slider-response,22,370022,0.0-22.0,12,1,2024-07-18 20:14:09,f601377285a5b1d9cf715ba604643eb5,38.186.160.35,"Mozilla/5.0 (Windows NT 10.0; Win64; x64) AppleWebKit/537.36 (KHTML, like Gecko) Chrome/125.0.0.0 Safari/537.36",WebKit,Chrome,125.0.0.0,Windows,10.0,https://app.prolific.com/,"en-US,en;q=0.9",cwvomor9l,664769791843dcc7d0f6cc1e,,,,,,<div style='display:flex; justify-content:center; align-items:center;'><img src='img/sign.png' style='width:140px; height:auto; margin-right:10px;' /><img src='img/map1_bus_grass_wandering.png' style='width:460px; height:auto;' /></div>,image_trial,,50,img/map1_bus_grass_wandering.png
4489,0,html-slider-response,23,374514,0.0-23.0,12,1,2024-07-18 20:14:09,f601377285a5b1d9cf715ba604643eb5,38.186.160.35,"Mozilla/5.0 (Windows NT 10.0; Win64; x64) AppleWebKit/537.36 (KHTML, like Gecko) Chrome/125.0.0.0 Safari/537.36",WebKit,Chrome,125.0.0.0,Windows,10.0,https://app.prolific.com/,"en-US,en;q=0.9",cwvomor9l,664769791843dcc7d0f6cc1e,,,,,,<div style='display:flex; justify-content:center; align-items:center;'><img src='img/sign.png' style='width:140px; height:auto; margin-right:10px;' /><img src='img/map1_bus_grass_shortest.png' style='width:460px; height:auto;' /></div>,image_trial,,50,img/map1_bus_grass_shortest.png
4725,0,html-slider-response,24,379241,0.0-24.0,12,1,2024-07-18 20:14:09,f601377285a5b1d9cf715ba604643eb5,38.186.160.35,"Mozilla/5.0 (Windows NT 10.0; Win64; x64) AppleWebKit/537.36 (KHTML, like Gecko) Chrome/125.0.0.0 Safari/537.36",WebKit,Chrome,125.0.0.0,Windows,10.0,https://app.prolific.com/,"en-US,en;q=0.9",cwvomor9l,664769791843dcc7d0f6cc1e,,,,,,<div style='display:flex; justify-content:center; align-items:center;'><img src='img/sign.png' style='width:140px; height:auto; margin-right:10px;' /><img src='img/map2_bus_grass_wandering.png' style='width:460px; height:auto;' /></div>,image_trial,,50,img/map2_bus_grass_wandering.png
3407,0,html-slider-response,25,382651,0.0-25.0,12,1,2024-07-18 20:14:09,f601377285a5b1d9cf715ba604643eb5,38.186.160.35,"Mozilla/5.0 (Windows NT 10.0; Win64; x64) AppleWebKit/537.36 (KHTML, like Gecko) Chrome/125.0.0.0 Safari/537.36",WebKit,Chrome,125.0.0.0,Windows,10.0,https://app.prolific.com/,"en-US,en;q=0.9",cwvomor9l,664769791843dcc7d0f6cc1e,,,,,,<div style='display:flex; justify-content:center; align-items:center;'><img src='img/sign.png' style='width:140px; height:auto; margin-right:10px;' /><img src='img/map1_coffee_grass_shortest.png' style='width:460px; height:auto;' /></div>,image_trial,,50,img/map1_coffee_grass_shortest.png
3850,0,html-slider-response,26,386503,0.0-26.0,12,1,2024-07-18 20:14:09,f601377285a5b1d9cf715ba604643eb5,38.186.160.35,"Mozilla/5.0 (Windows NT 10.0; Win64; x64) AppleWebKit/537.36 (KHTML, like Gecko) Chrome/125.0.0.0 Safari/537.36",WebKit,Chrome,125.0.0.0,Windows,10.0,https://app.prolific.com/,"en-US,en;q=0.9",cwvomor9l,664769791843dcc7d0f6cc1e,,,,,,<div style='display:flex; justify-content:center; align-items:center;'><img src='img/sign.png' style='width:140px; height:auto; margin-right:10px;' /><img src='img/map2_hospital_grass_wandering.png' style='width:460px; height:auto;' /></div>,image_trial,,50,img/map2_hospital_grass_wandering.png
4306,100,html-slider-response,27,390811,0.0-27.0,12,1,2024-07-18 20:14:09,f601377285a5b1d9cf715ba604643eb5,38.186.160.35,"Mozilla/5.0 (Windows NT 10.0; Win64; x64) AppleWebKit/537.36 (KHTML, like Gecko) Chrome/125.0.0.0 Safari/537.36",WebKit,Chrome,125.0.0.0,Windows,10.0,https://app.prolific.com/,"en-US,en;q=0.9",cwvomor9l,664769791843dcc7d0f6cc1e,,,,,,<div style='display:flex; justify-content:center; align-items:center;'><img src='img/sign.png' style='width:140px; height:auto; margin-right:10px;' /><img src='img/map1_bus_sidewalk_shortest.png' style='width:460px; height:auto;' /></div>,image_trial,,50,img/map1_bus_sidewalk_shortest.png
4498,0,html-slider-response,28,395311,0.0-28.0,12,1,2024-07-18 20:14:09,f601377285a5b1d9cf715ba604643eb5,38.186.160.35,"Mozilla/5.0 (Windows NT 10.0; Win64; x64) AppleWebKit/537.36 (KHTML, like Gecko) Chrome/125.0.0.0 Safari/537.36",WebKit,Chrome,125.0.0.0,Windows,10.0,https://app.prolific.com/,"en-US,en;q=0.9",cwvomor9l,664769791843dcc7d0f6cc1e,,,,,,<div style='display:flex; justify-content:center; align-items:center;'><img src='img/sign.png' style='width:140px; height:auto; margin-right:10px;' /><img src='img/map3_coffee_grass_wandering.png' style='width:460px; height:auto;' /></div>,image_trial,,50,img/map3_coffee_grass_wandering.png
4255,0,html-slider-response,29,399569,0.0-29.0,12,1,2024-07-18 20:14:09,f601377285a5b1d9cf715ba604643eb5,38.186.160.35,"Mozilla/5.0 (Windows NT 10.0; Win64; x64) AppleWebKit/537.36 (KHTML, like Gecko) Chrome/125.0.0.0 Safari/537.36",WebKit,Chrome,125.0.0.0,Windows,10.0,https://app.prolific.com/,"en-US,en;q=0.9",cwvomor9l,664769791843dcc7d0f6cc1e,,,,,,<div style='display:flex; justify-content:center; align-items:center;'><img src='img/sign.png' style='width:140px; height:auto; margin-right:10px;' /><img src='img/map3_bus_grass_wandering.png' style='width:460px; height:auto;' /></div>,image_trial,,50,img/map3_bus_grass_wandering.png
5285,100,html-slider-response,30,404857,0.0-30.0,12,1,2024-07-18 20:14:09,f601377285a5b1d9cf715ba604643eb5,38.186.160.35,"Mozilla/5.0 (Windows NT 10.0; Win64; x64) AppleWebKit/537.36 (KHTML, like Gecko) Chrome/125.0.0.0 Safari/537.36",WebKit,Chrome,125.0.0.0,Windows,10.0,https://app.prolific.com/,"en-US,en;q=0.9",cwvomor9l,664769791843dcc7d0f6cc1e,,,,,,<div style='display:flex; justify-content:center; align-items:center;'><img src='img/sign.png' style='width:140px; height:auto; margin-right:10px;' /><img src='img/map3_hospital_sidewalk_shortest.png' style='width:460px; height:auto;' /></div>,image_trial,,50,img/map3_hospital_sidewalk_shortest.png
5837,0,html-slider-response,31,410697,0.0-31.0,12,1,2024-07-18 20:14:09,f601377285a5b1d9cf715ba604643eb5,38.186.160.35,"Mozilla/5.0 (Windows NT 10.0; Win64; x64) AppleWebKit/537.36 (KHTML, like Gecko) Chrome/125.0.0.0 Safari/537.36",WebKit,Chrome,125.0.0.0,Windows,10.0,https://app.prolific.com/,"en-US,en;q=0.9",cwvomor9l,664769791843dcc7d0f6cc1e,,,,,,<div style='display:flex; justify-content:center; align-items:center;'><img src='img/sign.png' style='width:140px; height:auto; margin-right:10px;' /><img src='img/map1_hospital_grass_wandering.png' style='width:460px; height:auto;' /></div>,image_trial,,50,img/map1_hospital_grass_wandering.png
6645,100,html-slider-response,32,417345,0.0-32.0,12,1,2024-07-18 20:14:09,f601377285a5b1d9cf715ba604643eb5,38.186.160.35,"Mozilla/5.0 (Windows NT 10.0; Win64; x64) AppleWebKit/537.36 (KHTML, like Gecko) Chrome/125.0.0.0 Safari/537.36",WebKit,Chrome,125.0.0.0,Windows,10.0,https://app.prolific.com/,"en-US,en;q=0.9",cwvomor9l,664769791843dcc7d0f6cc1e,,,,,,<div style='display:flex; justify-content:center; align-items:center;'><img src='img/sign.png' style='width:140px; height:auto; margin-right:10px;' /><img src='img/map3_coffee_sidewalk_shortest.png' style='width:460px; height:auto;' /></div>,image_trial,,50,img/map3_coffee_sidewalk_shortest.png
4304,100,html-slider-response,33,421653,0.0-33.0,12,1,2024-07-18 20:14:09,f601377285a5b1d9cf715ba604643eb5,38.186.160.35,"Mozilla/5.0 (Windows NT 10.0; Win64; x64) AppleWebKit/537.36 (KHTML, like Gecko) Chrome/125.0.0.0 Safari/537.36",WebKit,Chrome,125.0.0.0,Windows,10.0,https://app.prolific.com/,"en-US,en;q=0.9",cwvomor9l,664769791843dcc7d0f6cc1e,,,,,,<div style='display:flex; justify-content:center; align-items:center;'><img src='img/sign.png' style='width:140px; height:auto; margin-right:10px;' /><img src='img/map1_coffee_sidewalk_shortest.png' style='width:460px; height:auto;' /></div>,image_trial,,50,img/map1_coffee_sidewalk_shortest.png
61097,"[{""name"":""understand"",""value"":""yes""},{""name"":""problems"",""value"":""No""},{""name"":""age"",""value"":""30""},{""name"":""gender"",""value"":""male""},{""name"":""comments"",""value"":""It was fun to take the test because it's practical study. ""}]",survey-html-form,34,482752,0.0-34.0,12,1,2024-07-18 20:14:09,f601377285a5b1d9cf715ba604643eb5,38.186.160.35,"Mozilla/5.0 (Windows NT 10.0; Win64; x64) AppleWebKit/537.36 (KHTML, like Gecko) Chrome/125.0.0.0 Safari/537.36",WebKit,Chrome,125.0.0.0,Windows,10.0,https://app.prolific.com/,"en-US,en;q=0.9",cwvomor9l,664769791843dcc7d0f6cc1e,,,,,,,debrief,,,
22640,"{""Q0"":""cwvomor9l ""}",survey-text,35,505411,0.0-35.0,12,1,2024-07-18 20:14:09,f601377285a5b1d9cf715ba604643eb5,38.186.160.35,"Mozilla/5.0 (Windows NT 10.0; Win64; x64) AppleWebKit/537.36 (KHTML, like Gecko) Chrome/125.0.0.0 Safari/537.36",WebKit,Chrome,125.0.0.0,Windows,10.0,https://app.prolific.com/,"en-US,en;q=0.9",cwvomor9l,664769791843dcc7d0f6cc1e,,,,,,,,,,
3794,"{""prolific_id"":""66321839387085e90a5f419a""}",survey-text,0,3812,0.0-0.0,1,1,2024-07-18 20:09:18,f601377285a5b1d9cf715ba604643eb5,97.71.225.186,"Mozilla/5.0 (Macintosh; Intel Mac OS X 10_15_7) AppleWebKit/537.36 (KHTML, like Gecko) Chrome/126.0.0.0 Safari/537.36",Macintosh,Chrome,126.0.0.0,OS X,10_15_7,https://app.prolific.com/,"en-US,en;q=0.9",u89yvyal7,66321839387085e90a5f419a,,,,,,,,,,
,,preload,1,9783,0.0-1.0,1,1,2024-07-18 20:09:18,f601377285a5b1d9cf715ba604643eb5,97.71.225.186,"Mozilla/5.0 (Macintosh; Intel Mac OS X 10_15_7) AppleWebKit/537.36 (KHTML, like Gecko) Chrome/126.0.0.0 Safari/537.36",Macintosh,Chrome,126.0.0.0,OS X,10_15_7,https://app.prolific.com/,"en-US,en;q=0.9",u89yvyal7,66321839387085e90a5f419a,true,false,[],[],[],,,,,
5293, ,html-keyboard-response,2,15077,0.0-2.0,1,1,2024-07-18 20:09:18,f601377285a5b1d9cf715ba604643eb5,97.71.225.186,"Mozilla/5.0 (Macintosh; Intel Mac OS X 10_15_7) AppleWebKit/537.36 (KHTML, like Gecko) Chrome/126.0.0.0 Safari/537.36",Macintosh,Chrome,126.0.0.0,OS X,10_15_7,https://app.prolific.com/,"en-US,en;q=0.9",u89yvyal7,66321839387085e90a5f419a,,,,,,"<p style=""text-align:center;width:700px;""> Welcome to the experiment! This study takes most people around 10 minutes to complete. Please complete it in one sitting.</p>",,,,
12557,y,html-keyboard-response,3,27636,0.0-3.0,1,1,2024-07-18 20:09:18,f601377285a5b1d9cf715ba604643eb5,97.71.225.186,"Mozilla/5.0 (Macintosh; Intel Mac OS X 10_15_7) AppleWebKit/537.36 (KHTML, like Gecko) Chrome/126.0.0.0 Safari/537.36",Macintosh,Chrome,126.0.0.0,OS X,10_15_7,https://app.prolific.com/,"en-US,en;q=0.9",u89yvyal7,66321839387085e90a5f419a,,,,,,"<p style = ""font-size:16px;"">MIT Computational Cognitive Science Lab</p><h4>Press the 'y' key to consent.</h4><div style = ""background-color:#f2f2f2;""><h3>Informed Consent Form</h3><div style=""text-align:left;width:700px;""><p style = ""font-size:16px;"">In this study, you will be asked to read a set of instructions that describe a particular scenario, and you will then be asked to perform a simple task relating to that scenario. There will also be comprehension and attention checks. Participants who do not answer these checks correctly cannot be approved. In order to get credit for this study, you must read all the questions fully and answer honestly. You may only complete this study once. If you complete this study multiple times, you will be rejected.</p><p style = ""font-size:16px;"">This study is part of a MIT scientific research project. Your decision to complete this study is voluntary. There is no way for us to identify you. The only information we will have, in addition to your responses, is the time at which you completed the survey. The results of the research may be presented at scientific meetings or published in scientific journals. Pressing the ""Y"" key indicates that you are at least 18 years of age, and agree to complete this study voluntarily. Press the ""Y"" key to confirm your agreement and continue.</p></div>",,,,
67173,"{""instructions1"":""a park in a medium sized town""}",survey-text,4,94824,0.0-4.0,1,1,2024-07-18 20:09:18,f601377285a5b1d9cf715ba604643eb5,97.71.225.186,"Mozilla/5.0 (Macintosh; Intel Mac OS X 10_15_7) AppleWebKit/537.36 (KHTML, like Gecko) Chrome/126.0.0.0 Safari/537.36",Macintosh,Chrome,126.0.0.0,OS X,10_15_7,https://app.prolific.com/,"en-US,en;q=0.9",u89yvyal7,66321839387085e90a5f419a,,,,,,,instructions,,,
76108,"{""instructions2"":""yes""}",survey-text,5,170784,0.0-5.0,1,1,2024-07-18 20:09:18,f601377285a5b1d9cf715ba604643eb5,97.71.225.186,"Mozilla/5.0 (Macintosh; Intel Mac OS X 10_15_7) AppleWebKit/537.36 (KHTML, like Gecko) Chrome/126.0.0.0 Safari/537.36",Macintosh,Chrome,126.0.0.0,OS X,10_15_7,https://app.prolific.com/,"en-US,en;q=0.9",u89yvyal7,66321839387085e90a5f419a,,,,,,,instructions,,,
56135,"{""map_attention"":""A person travelling through the park"",""squares_attention"":""Two terrains (grass and sidewalk) and three destinations (urgent care, bus stop, coffee shop)"",""answer_attention"":""Based on your own best judgment based on the map that you see, as well as your <i>own</i> common sense intuitions about towns and these kinds of destinations in general.""}",survey-multi-choice,6,226923,0.0-6.0,1,1,2024-07-18 20:09:18,f601377285a5b1d9cf715ba604643eb5,97.71.225.186,"Mozilla/5.0 (Macintosh; Intel Mac OS X 10_15_7) AppleWebKit/537.36 (KHTML, like Gecko) Chrome/126.0.0.0 Safari/537.36",Macintosh,Chrome,126.0.0.0,OS X,10_15_7,https://app.prolific.com/,"en-US,en;q=0.9",u89yvyal7,66321839387085e90a5f419a,,,,,,,,"[0,1,2]",,
21490,1,html-slider-response,7,248422,0.0-7.0,1,1,2024-07-18 20:09:18,f601377285a5b1d9cf715ba604643eb5,97.71.225.186,"Mozilla/5.0 (Macintosh; Intel Mac OS X 10_15_7) AppleWebKit/537.36 (KHTML, like Gecko) Chrome/126.0.0.0 Safari/537.36",Macintosh,Chrome,126.0.0.0,OS X,10_15_7,https://app.prolific.com/,"en-US,en;q=0.9",u89yvyal7,66321839387085e90a5f419a,,,,,,<div style='display:flex; justify-content:center; align-items:center;'><img src='img/sign.png' style='width:140px; height:auto; margin-right:10px;' /><img src='img/map1_hospital_grass_shortest.png' style='width:460px; height:auto;' /></div>,image_trial,,50,img/map1_hospital_grass_shortest.png
25085,94,html-slider-response,8,273510,0.0-8.0,1,1,2024-07-18 20:09:18,f601377285a5b1d9cf715ba604643eb5,97.71.225.186,"Mozilla/5.0 (Macintosh; Intel Mac OS X 10_15_7) AppleWebKit/537.36 (KHTML, like Gecko) Chrome/126.0.0.0 Safari/537.36",Macintosh,Chrome,126.0.0.0,OS X,10_15_7,https://app.prolific.com/,"en-US,en;q=0.9",u89yvyal7,66321839387085e90a5f419a,,,,,,<div style='display:flex; justify-content:center; align-items:center;'><img src='img/sign.png' style='width:140px; height:auto; margin-right:10px;' /><img src='img/map3_bus_sidewalk_shortest.png' style='width:460px; height:auto;' /></div>,image_trial,,50,img/map3_bus_sidewalk_shortest.png
5777,0,html-slider-response,9,279290,0.0-9.0,1,1,2024-07-18 20:09:18,f601377285a5b1d9cf715ba604643eb5,97.71.225.186,"Mozilla/5.0 (Macintosh; Intel Mac OS X 10_15_7) AppleWebKit/537.36 (KHTML, like Gecko) Chrome/126.0.0.0 Safari/537.36",Macintosh,Chrome,126.0.0.0,OS X,10_15_7,https://app.prolific.com/,"en-US,en;q=0.9",u89yvyal7,66321839387085e90a5f419a,,,,,,<div style='display:flex; justify-content:center; align-items:center;'><img src='img/sign.png' style='width:140px; height:auto; margin-right:10px;' /><img src='img/map1_bus_grass_wandering.png' style='width:460px; height:auto;' /></div>,image_trial,,50,img/map1_bus_grass_wandering.png
7658,98,html-slider-response,10,286950,0.0-10.0,1,1,2024-07-18 20:09:18,f601377285a5b1d9cf715ba604643eb5,97.71.225.186,"Mozilla/5.0 (Macintosh; Intel Mac OS X 10_15_7) AppleWebKit/537.36 (KHTML, like Gecko) Chrome/126.0.0.0 Safari/537.36",Macintosh,Chrome,126.0.0.0,OS X,10_15_7,https://app.prolific.com/,"en-US,en;q=0.9",u89yvyal7,66321839387085e90a5f419a,,,,,,<div style='display:flex; justify-content:center; align-items:center;'><img src='img/sign.png' style='width:140px; height:auto; margin-right:10px;' /><img src='img/map1_coffee_sidewalk_shortest.png' style='width:460px; height:auto;' /></div>,image_trial,,50,img/map1_coffee_sidewalk_shortest.png
12511,93,html-slider-response,11,299464,0.0-11.0,1,1,2024-07-18 20:09:18,f601377285a5b1d9cf715ba604643eb5,97.71.225.186,"Mozilla/5.0 (Macintosh; Intel Mac OS X 10_15_7) AppleWebKit/537.36 (KHTML, like Gecko) Chrome/126.0.0.0 Safari/537.36",Macintosh,Chrome,126.0.0.0,OS X,10_15_7,https://app.prolific.com/,"en-US,en;q=0.9",u89yvyal7,66321839387085e90a5f419a,,,,,,<div style='display:flex; justify-content:center; align-items:center;'><img src='img/sign.png' style='width:140px; height:auto; margin-right:10px;' /><img src='img/map3_hospital_sidewalk_shortest.png' style='width:460px; height:auto;' /></div>,image_trial,,50,img/map3_hospital_sidewalk_shortest.png
6429,1,html-slider-response,12,305895,0.0-12.0,1,1,2024-07-18 20:09:18,f601377285a5b1d9cf715ba604643eb5,97.71.225.186,"Mozilla/5.0 (Macintosh; Intel Mac OS X 10_15_7) AppleWebKit/537.36 (KHTML, like Gecko) Chrome/126.0.0.0 Safari/537.36",Macintosh,Chrome,126.0.0.0,OS X,10_15_7,https://app.prolific.com/,"en-US,en;q=0.9",u89yvyal7,66321839387085e90a5f419a,,,,,,<div style='display:flex; justify-content:center; align-items:center;'><img src='img/sign.png' style='width:140px; height:auto; margin-right:10px;' /><img src='img/map3_bus_grass_shortest.png' style='width:460px; height:auto;' /></div>,image_trial,,50,img/map3_bus_grass_shortest.png
25182,2,html-slider-response,13,331080,0.0-13.0,1,1,2024-07-18 20:09:18,f601377285a5b1d9cf715ba604643eb5,97.71.225.186,"Mozilla/5.0 (Macintosh; Intel Mac OS X 10_15_7) AppleWebKit/537.36 (KHTML, like Gecko) Chrome/126.0.0.0 Safari/537.36",Macintosh,Chrome,126.0.0.0,OS X,10_15_7,https://app.prolific.com/,"en-US,en;q=0.9",u89yvyal7,66321839387085e90a5f419a,,,,,,<div style='display:flex; justify-content:center; align-items:center;'><img src='img/sign.png' style='width:140px; height:auto; margin-right:10px;' /><img src='img/map1_bus_grass_shortest.png' style='width:460px; height:auto;' /></div>,image_trial,,50,img/map1_bus_grass_shortest.png
5206,100,html-slider-response,14,336289,0.0-14.0,1,1,2024-07-18 20:09:18,f601377285a5b1d9cf715ba604643eb5,97.71.225.186,"Mozilla/5.0 (Macintosh; Intel Mac OS X 10_15_7) AppleWebKit/537.36 (KHTML, like Gecko) Chrome/126.0.0.0 Safari/537.36",Macintosh,Chrome,126.0.0.0,OS X,10_15_7,https://app.prolific.com/,"en-US,en;q=0.9",u89yvyal7,66321839387085e90a5f419a,,,,,,<div style='display:flex; justify-content:center; align-items:center;'><img src='img/sign.png' style='width:140px; height:auto; margin-right:10px;' /><img src='img/map2_coffee_sidewalk_shortest.png' style='width:460px; height:auto;' /></div>,image_trial,,50,img/map2_coffee_sidewalk_shortest.png
12705,100,html-slider-response,15,348996,0.0-15.0,1,1,2024-07-18 20:09:18,f601377285a5b1d9cf715ba604643eb5,97.71.225.186,"Mozilla/5.0 (Macintosh; Intel Mac OS X 10_15_7) AppleWebKit/537.36 (KHTML, like Gecko) Chrome/126.0.0.0 Safari/537.36",Macintosh,Chrome,126.0.0.0,OS X,10_15_7,https://app.prolific.com/,"en-US,en;q=0.9",u89yvyal7,66321839387085e90a5f419a,,,,,,<div style='display:flex; justify-content:center; align-items:center;'><img src='img/sign.png' style='width:140px; height:auto; margin-right:10px;' /><img src='img/map2_hospital_sidewalk_shortest.png' style='width:460px; height:auto;' /></div>,image_trial,,50,img/map2_hospital_sidewalk_shortest.png
5090,0,html-slider-response,16,354088,0.0-16.0,1,1,2024-07-18 20:09:18,f601377285a5b1d9cf715ba604643eb5,97.71.225.186,"Mozilla/5.0 (Macintosh; Intel Mac OS X 10_15_7) AppleWebKit/537.36 (KHTML, like Gecko) Chrome/126.0.0.0 Safari/537.36",Macintosh,Chrome,126.0.0.0,OS X,10_15_7,https://app.prolific.com/,"en-US,en;q=0.9",u89yvyal7,66321839387085e90a5f419a,,,,,,<div style='display:flex; justify-content:center; align-items:center;'><img src='img/sign.png' style='width:140px; height:auto; margin-right:10px;' /><img src='img/map2_coffee_grass_shortest.png' style='width:460px; height:auto;' /></div>,image_trial,,50,img/map2_coffee_grass_shortest.png
6279,2,html-slider-response,17,360369,0.0-17.0,1,1,2024-07-18 20:09:18,f601377285a5b1d9cf715ba604643eb5,97.71.225.186,"Mozilla/5.0 (Macintosh; Intel Mac OS X 10_15_7) AppleWebKit/537.36 (KHTML, like Gecko) Chrome/126.0.0.0 Safari/537.36",Macintosh,Chrome,126.0.0.0,OS X,10_15_7,https://app.prolific.com/,"en-US,en;q=0.9",u89yvyal7,66321839387085e90a5f419a,,,,,,<div style='display:flex; justify-content:center; align-items:center;'><img src='img/sign.png' style='width:140px; height:auto; margin-right:10px;' /><img src='img/map3_hospital_grass_wandering.png' style='width:460px; height:auto;' /></div>,image_trial,,50,img/map3_hospital_grass_wandering.png
7490,100,html-slider-response,18,367861,0.0-18.0,1,1,2024-07-18 20:09:18,f601377285a5b1d9cf715ba604643eb5,97.71.225.186,"Mozilla/5.0 (Macintosh; Intel Mac OS X 10_15_7) AppleWebKit/537.36 (KHTML, like Gecko) Chrome/126.0.0.0 Safari/537.36",Macintosh,Chrome,126.0.0.0,OS X,10_15_7,https://app.prolific.com/,"en-US,en;q=0.9",u89yvyal7,66321839387085e90a5f419a,,,,,,<div style='display:flex; justify-content:center; align-items:center;'><img src='img/sign.png' style='width:140px; height:auto; margin-right:10px;' /><img src='img/map2_bus_sidewalk_shortest.png' style='width:460px; height:auto;' /></div>,image_trial,,50,img/map2_bus_sidewalk_shortest.png
19142,1,html-slider-response,19,387006,0.0-19.0,1,1,2024-07-18 20:09:18,f601377285a5b1d9cf715ba604643eb5,97.71.225.186,"Mozilla/5.0 (Macintosh; Intel Mac OS X 10_15_7) AppleWebKit/537.36 (KHTML, like Gecko) Chrome/126.0.0.0 Safari/537.36",Macintosh,Chrome,126.0.0.0,OS X,10_15_7,https://app.prolific.com/,"en-US,en;q=0.9",u89yvyal7,66321839387085e90a5f419a,,,,,,<div style='display:flex; justify-content:center; align-items:center;'><img src='img/sign.png' style='width:140px; height:auto; margin-right:10px;' /><img src='img/map2_bus_grass_shortest.png' style='width:460px; height:auto;' /></div>,image_trial,,50,img/map2_bus_grass_shortest.png
32838,90,html-slider-response,20,419847,0.0-20.0,1,1,2024-07-18 20:09:18,f601377285a5b1d9cf715ba604643eb5,97.71.225.186,"Mozilla/5.0 (Macintosh; Intel Mac OS X 10_15_7) AppleWebKit/537.36 (KHTML, like Gecko) Chrome/126.0.0.0 Safari/537.36",Macintosh,Chrome,126.0.0.0,OS X,10_15_7,https://app.prolific.com/,"en-US,en;q=0.9",u89yvyal7,66321839387085e90a5f419a,,,,,,<div style='display:flex; justify-content:center; align-items:center;'><img src='img/sign.png' style='width:140px; height:auto; margin-right:10px;' /><img src='img/map3_coffee_sidewalk_shortest.png' style='width:460px; height:auto;' /></div>,image_trial,,50,img/map3_coffee_sidewalk_shortest.png
5003,3,html-slider-response,21,424853,0.0-21.0,1,1,2024-07-18 20:09:18,f601377285a5b1d9cf715ba604643eb5,97.71.225.186,"Mozilla/5.0 (Macintosh; Intel Mac OS X 10_15_7) AppleWebKit/537.36 (KHTML, like Gecko) Chrome/126.0.0.0 Safari/537.36",Macintosh,Chrome,126.0.0.0,OS X,10_15_7,https://app.prolific.com/,"en-US,en;q=0.9",u89yvyal7,66321839387085e90a5f419a,,,,,,<div style='display:flex; justify-content:center; align-items:center;'><img src='img/sign.png' style='width:140px; height:auto; margin-right:10px;' /><img src='img/map3_coffee_grass_shortest.png' style='width:460px; height:auto;' /></div>,image_trial,,50,img/map3_coffee_grass_shortest.png
5075,3,html-slider-response,22,429930,0.0-22.0,1,1,2024-07-18 20:09:18,f601377285a5b1d9cf715ba604643eb5,97.71.225.186,"Mozilla/5.0 (Macintosh; Intel Mac OS X 10_15_7) AppleWebKit/537.36 (KHTML, like Gecko) Chrome/126.0.0.0 Safari/537.36",Macintosh,Chrome,126.0.0.0,OS X,10_15_7,https://app.prolific.com/,"en-US,en;q=0.9",u89yvyal7,66321839387085e90a5f419a,,,,,,<div style='display:flex; justify-content:center; align-items:center;'><img src='img/sign.png' style='width:140px; height:auto; margin-right:10px;' /><img src='img/map3_bus_grass_wandering.png' style='width:460px; height:auto;' /></div>,image_trial,,50,img/map3_bus_grass_wandering.png
6985,6,html-slider-response,23,436918,0.0-23.0,1,1,2024-07-18 20:09:18,f601377285a5b1d9cf715ba604643eb5,97.71.225.186,"Mozilla/5.0 (Macintosh; Intel Mac OS X 10_15_7) AppleWebKit/537.36 (KHTML, like Gecko) Chrome/126.0.0.0 Safari/537.36",Macintosh,Chrome,126.0.0.0,OS X,10_15_7,https://app.prolific.com/,"en-US,en;q=0.9",u89yvyal7,66321839387085e90a5f419a,,,,,,<div style='display:flex; justify-content:center; align-items:center;'><img src='img/sign.png' style='width:140px; height:auto; margin-right:10px;' /><img src='img/map1_coffee_grass_shortest.png' style='width:460px; height:auto;' /></div>,image_trial,,50,img/map1_coffee_grass_shortest.png
4242,2,html-slider-response,24,441163,0.0-24.0,1,1,2024-07-18 20:09:18,f601377285a5b1d9cf715ba604643eb5,97.71.225.186,"Mozilla/5.0 (Macintosh; Intel Mac OS X 10_15_7) AppleWebKit/537.36 (KHTML, like Gecko) Chrome/126.0.0.0 Safari/537.36",Macintosh,Chrome,126.0.0.0,OS X,10_15_7,https://app.prolific.com/,"en-US,en;q=0.9",u89yvyal7,66321839387085e90a5f419a,,,,,,<div style='display:flex; justify-content:center; align-items:center;'><img src='img/sign.png' style='width:140px; height:auto; margin-right:10px;' /><img src='img/map2_hospital_grass_wandering.png' style='width:460px; height:auto;' /></div>,image_trial,,50,img/map2_hospital_grass_wandering.png
21241,6,html-slider-response,25,462407,0.0-25.0,1,1,2024-07-18 20:09:18,f601377285a5b1d9cf715ba604643eb5,97.71.225.186,"Mozilla/5.0 (Macintosh; Intel Mac OS X 10_15_7) AppleWebKit/537.36 (KHTML, like Gecko) Chrome/126.0.0.0 Safari/537.36",Macintosh,Chrome,126.0.0.0,OS X,10_15_7,https://app.prolific.com/,"en-US,en;q=0.9",u89yvyal7,66321839387085e90a5f419a,,,,,,<div style='display:flex; justify-content:center; align-items:center;'><img src='img/sign.png' style='width:140px; height:auto; margin-right:10px;' /><img src='img/map2_bus_grass_wandering.png' style='width:460px; height:auto;' /></div>,image_trial,,50,img/map2_bus_grass_wandering.png
17949,100,html-slider-response,26,480358,0.0-26.0,1,1,2024-07-18 20:09:18,f601377285a5b1d9cf715ba604643eb5,97.71.225.186,"Mozilla/5.0 (Macintosh; Intel Mac OS X 10_15_7) AppleWebKit/537.36 (KHTML, like Gecko) Chrome/126.0.0.0 Safari/537.36",Macintosh,Chrome,126.0.0.0,OS X,10_15_7,https://app.prolific.com/,"en-US,en;q=0.9",u89yvyal7,66321839387085e90a5f419a,,,,,,<div style='display:flex; justify-content:center; align-items:center;'><img src='img/sign.png' style='width:140px; height:auto; margin-right:10px;' /><img src='img/map1_bus_sidewalk_shortest.png' style='width:460px; height:auto;' /></div>,image_trial,,50,img/map1_bus_sidewalk_shortest.png
24833,0,html-slider-response,27,505194,0.0-27.0,1,1,2024-07-18 20:09:18,f601377285a5b1d9cf715ba604643eb5,97.71.225.186,"Mozilla/5.0 (Macintosh; Intel Mac OS X 10_15_7) AppleWebKit/537.36 (KHTML, like Gecko) Chrome/126.0.0.0 Safari/537.36",Macintosh,Chrome,126.0.0.0,OS X,10_15_7,https://app.prolific.com/,"en-US,en;q=0.9",u89yvyal7,66321839387085e90a5f419a,,,,,,<div style='display:flex; justify-content:center; align-items:center;'><img src='img/sign.png' style='width:140px; height:auto; margin-right:10px;' /><img src='img/map3_coffee_grass_wandering.png' style='width:460px; height:auto;' /></div>,image_trial,,50,img/map3_coffee_grass_wandering.png
4591,1,html-slider-response,28,509788,0.0-28.0,1,1,2024-07-18 20:09:18,f601377285a5b1d9cf715ba604643eb5,97.71.225.186,"Mozilla/5.0 (Macintosh; Intel Mac OS X 10_15_7) AppleWebKit/537.36 (KHTML, like Gecko) Chrome/126.0.0.0 Safari/537.36",Macintosh,Chrome,126.0.0.0,OS X,10_15_7,https://app.prolific.com/,"en-US,en;q=0.9",u89yvyal7,66321839387085e90a5f419a,,,,,,<div style='display:flex; justify-content:center; align-items:center;'><img src='img/sign.png' style='width:140px; height:auto; margin-right:10px;' /><img src='img/map2_hospital_grass_shortest.png' style='width:460px; height:auto;' /></div>,image_trial,,50,img/map2_hospital_grass_shortest.png
5295,96,html-slider-response,29,515085,0.0-29.0,1,1,2024-07-18 20:09:18,f601377285a5b1d9cf715ba604643eb5,97.71.225.186,"Mozilla/5.0 (Macintosh; Intel Mac OS X 10_15_7) AppleWebKit/537.36 (KHTML, like Gecko) Chrome/126.0.0.0 Safari/537.36",Macintosh,Chrome,126.0.0.0,OS X,10_15_7,https://app.prolific.com/,"en-US,en;q=0.9",u89yvyal7,66321839387085e90a5f419a,,,,,,<div style='display:flex; justify-content:center; align-items:center;'><img src='img/sign.png' style='width:140px; height:auto; margin-right:10px;' /><img src='img/map1_hospital_sidewalk_shortest.png' style='width:460px; height:auto;' /></div>,image_trial,,50,img/map1_hospital_sidewalk_shortest.png
5919,3,html-slider-response,30,521008,0.0-30.0,1,1,2024-07-18 20:09:18,f601377285a5b1d9cf715ba604643eb5,97.71.225.186,"Mozilla/5.0 (Macintosh; Intel Mac OS X 10_15_7) AppleWebKit/537.36 (KHTML, like Gecko) Chrome/126.0.0.0 Safari/537.36",Macintosh,Chrome,126.0.0.0,OS X,10_15_7,https://app.prolific.com/,"en-US,en;q=0.9",u89yvyal7,66321839387085e90a5f419a,,,,,,<div style='display:flex; justify-content:center; align-items:center;'><img src='img/sign.png' style='width:140px; height:auto; margin-right:10px;' /><img src='img/map1_hospital_grass_wandering.png' style='width:460px; height:auto;' /></div>,image_trial,,50,img/map1_hospital_grass_wandering.png
3803,4,html-slider-response,31,524814,0.0-31.0,1,1,2024-07-18 20:09:18,f601377285a5b1d9cf715ba604643eb5,97.71.225.186,"Mozilla/5.0 (Macintosh; Intel Mac OS X 10_15_7) AppleWebKit/537.36 (KHTML, like Gecko) Chrome/126.0.0.0 Safari/537.36",Macintosh,Chrome,126.0.0.0,OS X,10_15_7,https://app.prolific.com/,"en-US,en;q=0.9",u89yvyal7,66321839387085e90a5f419a,,,,,,<div style='display:flex; justify-content:center; align-items:center;'><img src='img/sign.png' style='width:140px; height:auto; margin-right:10px;' /><img src='img/map3_hospital_grass_shortest.png' style='width:460px; height:auto;' /></div>,image_trial,,50,img/map3_hospital_grass_shortest.png
28323,4,html-slider-response,32,553139,0.0-32.0,1,1,2024-07-18 20:09:18,f601377285a5b1d9cf715ba604643eb5,97.71.225.186,"Mozilla/5.0 (Macintosh; Intel Mac OS X 10_15_7) AppleWebKit/537.36 (KHTML, like Gecko) Chrome/126.0.0.0 Safari/537.36",Macintosh,Chrome,126.0.0.0,OS X,10_15_7,https://app.prolific.com/,"en-US,en;q=0.9",u89yvyal7,66321839387085e90a5f419a,,,,,,<div style='display:flex; justify-content:center; align-items:center;'><img src='img/sign.png' style='width:140px; height:auto; margin-right:10px;' /><img src='img/map1_coffee_grass_wandering.png' style='width:460px; height:auto;' /></div>,image_trial,,50,img/map1_coffee_grass_wandering.png
30521,2,html-slider-response,33,583662,0.0-33.0,1,1,2024-07-18 20:09:18,f601377285a5b1d9cf715ba604643eb5,97.71.225.186,"Mozilla/5.0 (Macintosh; Intel Mac OS X 10_15_7) AppleWebKit/537.36 (KHTML, like Gecko) Chrome/126.0.0.0 Safari/537.36",Macintosh,Chrome,126.0.0.0,OS X,10_15_7,https://app.prolific.com/,"en-US,en;q=0.9",u89yvyal7,66321839387085e90a5f419a,,,,,,<div style='display:flex; justify-content:center; align-items:center;'><img src='img/sign.png' style='width:140px; height:auto; margin-right:10px;' /><img src='img/map2_coffee_grass_wandering.png' style='width:460px; height:auto;' /></div>,image_trial,,50,img/map2_coffee_grass_wandering.png
13693,"[{""name"":""understand"",""value"":""yes""},{""name"":""problems"",""value"":""no""},{""name"":""age"",""value"":""28""},{""name"":""gender"",""value"":""male""},{""name"":""comments"",""value"":""""}]",survey-html-form,34,597358,0.0-34.0,1,1,2024-07-18 20:09:18,f601377285a5b1d9cf715ba604643eb5,97.71.225.186,"Mozilla/5.0 (Macintosh; Intel Mac OS X 10_15_7) AppleWebKit/537.36 (KHTML, like Gecko) Chrome/126.0.0.0 Safari/537.36",Macintosh,Chrome,126.0.0.0,OS X,10_15_7,https://app.prolific.com/,"en-US,en;q=0.9",u89yvyal7,66321839387085e90a5f419a,,,,,,,debrief,,,
10812,"{""Q0"":""u89yvyal7""}",survey-text,35,608173,0.0-35.0,1,1,2024-07-18 20:09:18,f601377285a5b1d9cf715ba604643eb5,97.71.225.186,"Mozilla/5.0 (Macintosh; Intel Mac OS X 10_15_7) AppleWebKit/537.36 (KHTML, like Gecko) Chrome/126.0.0.0 Safari/537.36",Macintosh,Chrome,126.0.0.0,OS X,10_15_7,https://app.prolific.com/,"en-US,en;q=0.9",u89yvyal7,66321839387085e90a5f419a,,,,,,,,,,
4050,"{""prolific_id"":""5e25be7c5514e680ef436338""}",survey-text,0,4062,0.0-0.0,13,1,2024-07-18 20:14:11,f601377285a5b1d9cf715ba604643eb5,172.58.1.86,"Mozilla/5.0 (Windows NT 10.0; Win64; x64) AppleWebKit/537.36 (KHTML, like Gecko) Chrome/126.0.0.0 Safari/537.36",WebKit,Chrome,126.0.0.0,Windows,10.0,https://app.prolific.com/,"en-US,en;q=0.9",mn4gr9lqh,5e25be7c5514e680ef436338,,,,,,,,,,
,,preload,1,4926,0.0-1.0,13,1,2024-07-18 20:14:11,f601377285a5b1d9cf715ba604643eb5,172.58.1.86,"Mozilla/5.0 (Windows NT 10.0; Win64; x64) AppleWebKit/537.36 (KHTML, like Gecko) Chrome/126.0.0.0 Safari/537.36",WebKit,Chrome,126.0.0.0,Windows,10.0,https://app.prolific.com/,"en-US,en;q=0.9",mn4gr9lqh,5e25be7c5514e680ef436338,true,false,[],[],[],,,,,
3544, ,html-keyboard-response,2,8471,0.0-2.0,13,1,2024-07-18 20:14:11,f601377285a5b1d9cf715ba604643eb5,172.58.1.86,"Mozilla/5.0 (Windows NT 10.0; Win64; x64) AppleWebKit/537.36 (KHTML, like Gecko) Chrome/126.0.0.0 Safari/537.36",WebKit,Chrome,126.0.0.0,Windows,10.0,https://app.prolific.com/,"en-US,en;q=0.9",mn4gr9lqh,5e25be7c5514e680ef436338,,,,,,"<p style=""text-align:center;width:700px;""> Welcome to the experiment! This study takes most people around 10 minutes to complete. Please complete it in one sitting.</p>",,,,
4059,y,html-keyboard-response,3,12531,0.0-3.0,13,1,2024-07-18 20:14:11,f601377285a5b1d9cf715ba604643eb5,172.58.1.86,"Mozilla/5.0 (Windows NT 10.0; Win64; x64) AppleWebKit/537.36 (KHTML, like Gecko) Chrome/126.0.0.0 Safari/537.36",WebKit,Chrome,126.0.0.0,Windows,10.0,https://app.prolific.com/,"en-US,en;q=0.9",mn4gr9lqh,5e25be7c5514e680ef436338,,,,,,"<p style = ""font-size:16px;"">MIT Computational Cognitive Science Lab</p><h4>Press the 'y' key to consent.</h4><div style = ""background-color:#f2f2f2;""><h3>Informed Consent Form</h3><div style=""text-align:left;width:700px;""><p style = ""font-size:16px;"">In this study, you will be asked to read a set of instructions that describe a particular scenario, and you will then be asked to perform a simple task relating to that scenario. There will also be comprehension and attention checks. Participants who do not answer these checks correctly cannot be approved. In order to get credit for this study, you must read all the questions fully and answer honestly. You may only complete this study once. If you complete this study multiple times, you will be rejected.</p><p style = ""font-size:16px;"">This study is part of a MIT scientific research project. Your decision to complete this study is voluntary. There is no way for us to identify you. The only information we will have, in addition to your responses, is the time at which you completed the survey. The results of the research may be presented at scientific meetings or published in scientific journals. Pressing the ""Y"" key indicates that you are at least 18 years of age, and agree to complete this study voluntarily. Press the ""Y"" key to confirm your agreement and continue.</p></div>",,,,
35101,"{""instructions1"":""common destinations""}",survey-text,4,47664,0.0-4.0,13,1,2024-07-18 20:14:11,f601377285a5b1d9cf715ba604643eb5,172.58.1.86,"Mozilla/5.0 (Windows NT 10.0; Win64; x64) AppleWebKit/537.36 (KHTML, like Gecko) Chrome/126.0.0.0 Safari/537.36",WebKit,Chrome,126.0.0.0,Windows,10.0,https://app.prolific.com/,"en-US,en;q=0.9",mn4gr9lqh,5e25be7c5514e680ef436338,,,,,,,instructions,,,
19312,"{""instructions2"":""yes""}",survey-text,5,66991,0.0-5.0,13,1,2024-07-18 20:14:11,f601377285a5b1d9cf715ba604643eb5,172.58.1.86,"Mozilla/5.0 (Windows NT 10.0; Win64; x64) AppleWebKit/537.36 (KHTML, like Gecko) Chrome/126.0.0.0 Safari/537.36",WebKit,Chrome,126.0.0.0,Windows,10.0,https://app.prolific.com/,"en-US,en;q=0.9",mn4gr9lqh,5e25be7c5514e680ef436338,,,,,,,instructions,,,
35228,"{""map_attention"":""Maps showing a small city, park, and destinations"",""squares_attention"":""Two terrains (grass and sidewalk) and three destinations (urgent care, bus stop, coffee shop)"",""answer_attention"":""Based on your own best judgment based on the map that you see, as well as your <i>own</i> common sense intuitions about towns and these kinds of destinations in general.""}",survey-multi-choice,6,102221,0.0-6.0,13,1,2024-07-18 20:14:11,f601377285a5b1d9cf715ba604643eb5,172.58.1.86,"Mozilla/5.0 (Windows NT 10.0; Win64; x64) AppleWebKit/537.36 (KHTML, like Gecko) Chrome/126.0.0.0 Safari/537.36",WebKit,Chrome,126.0.0.0,Windows,10.0,https://app.prolific.com/,"en-US,en;q=0.9",mn4gr9lqh,5e25be7c5514e680ef436338,,,,,,,,"[0,1,2]",,
16495,22,html-slider-response,7,118721,0.0-7.0,13,1,2024-07-18 20:14:11,f601377285a5b1d9cf715ba604643eb5,172.58.1.86,"Mozilla/5.0 (Windows NT 10.0; Win64; x64) AppleWebKit/537.36 (KHTML, like Gecko) Chrome/126.0.0.0 Safari/537.36",WebKit,Chrome,126.0.0.0,Windows,10.0,https://app.prolific.com/,"en-US,en;q=0.9",mn4gr9lqh,5e25be7c5514e680ef436338,,,,,,<div style='display:flex; justify-content:center; align-items:center;'><img src='img/sign.png' style='width:140px; height:auto; margin-right:10px;' /><img src='img/map2_hospital_grass_wandering.png' style='width:460px; height:auto;' /></div>,image_trial,,50,img/map2_hospital_grass_wandering.png
10594,6,html-slider-response,8,129318,0.0-8.0,13,1,2024-07-18 20:14:11,f601377285a5b1d9cf715ba604643eb5,172.58.1.86,"Mozilla/5.0 (Windows NT 10.0; Win64; x64) AppleWebKit/537.36 (KHTML, like Gecko) Chrome/126.0.0.0 Safari/537.36",WebKit,Chrome,126.0.0.0,Windows,10.0,https://app.prolific.com/,"en-US,en;q=0.9",mn4gr9lqh,5e25be7c5514e680ef436338,,,,,,<div style='display:flex; justify-content:center; align-items:center;'><img src='img/sign.png' style='width:140px; height:auto; margin-right:10px;' /><img src='img/map3_bus_grass_wandering.png' style='width:460px; height:auto;' /></div>,image_trial,,50,img/map3_bus_grass_wandering.png
8638,100,html-slider-response,9,137959,0.0-9.0,13,1,2024-07-18 20:14:11,f601377285a5b1d9cf715ba604643eb5,172.58.1.86,"Mozilla/5.0 (Windows NT 10.0; Win64; x64) AppleWebKit/537.36 (KHTML, like Gecko) Chrome/126.0.0.0 Safari/537.36",WebKit,Chrome,126.0.0.0,Windows,10.0,https://app.prolific.com/,"en-US,en;q=0.9",mn4gr9lqh,5e25be7c5514e680ef436338,,,,,,<div style='display:flex; justify-content:center; align-items:center;'><img src='img/sign.png' style='width:140px; height:auto; margin-right:10px;' /><img src='img/map1_bus_sidewalk_shortest.png' style='width:460px; height:auto;' /></div>,image_trial,,50,img/map1_bus_sidewalk_shortest.png
9254,84,html-slider-response,10,147217,0.0-10.0,13,1,2024-07-18 20:14:11,f601377285a5b1d9cf715ba604643eb5,172.58.1.86,"Mozilla/5.0 (Windows NT 10.0; Win64; x64) AppleWebKit/537.36 (KHTML, like Gecko) Chrome/126.0.0.0 Safari/537.36",WebKit,Chrome,126.0.0.0,Windows,10.0,https://app.prolific.com/,"en-US,en;q=0.9",mn4gr9lqh,5e25be7c5514e680ef436338,,,,,,<div style='display:flex; justify-content:center; align-items:center;'><img src='img/sign.png' style='width:140px; height:auto; margin-right:10px;' /><img src='img/map2_coffee_sidewalk_shortest.png' style='width:460px; height:auto;' /></div>,image_trial,,50,img/map2_coffee_sidewalk_shortest.png
13303,99,html-slider-response,11,160523,0.0-11.0,13,1,2024-07-18 20:14:11,f601377285a5b1d9cf715ba604643eb5,172.58.1.86,"Mozilla/5.0 (Windows NT 10.0; Win64; x64) AppleWebKit/537.36 (KHTML, like Gecko) Chrome/126.0.0.0 Safari/537.36",WebKit,Chrome,126.0.0.0,Windows,10.0,https://app.prolific.com/,"en-US,en;q=0.9",mn4gr9lqh,5e25be7c5514e680ef436338,,,,,,<div style='display:flex; justify-content:center; align-items:center;'><img src='img/sign.png' style='width:140px; height:auto; margin-right:10px;' /><img src='img/map1_hospital_sidewalk_shortest.png' style='width:460px; height:auto;' /></div>,image_trial,,50,img/map1_hospital_sidewalk_shortest.png
8952,9,html-slider-response,12,169477,0.0-12.0,13,1,2024-07-18 20:14:11,f601377285a5b1d9cf715ba604643eb5,172.58.1.86,"Mozilla/5.0 (Windows NT 10.0; Win64; x64) AppleWebKit/537.36 (KHTML, like Gecko) Chrome/126.0.0.0 Safari/537.36",WebKit,Chrome,126.0.0.0,Windows,10.0,https://app.prolific.com/,"en-US,en;q=0.9",mn4gr9lqh,5e25be7c5514e680ef436338,,,,,,<div style='display:flex; justify-content:center; align-items:center;'><img src='img/sign.png' style='width:140px; height:auto; margin-right:10px;' /><img src='img/map1_bus_grass_wandering.png' style='width:460px; height:auto;' /></div>,image_trial,,50,img/map1_bus_grass_wandering.png
5815,14,html-slider-response,13,175295,0.0-13.0,13,1,2024-07-18 20:14:11,f601377285a5b1d9cf715ba604643eb5,172.58.1.86,"Mozilla/5.0 (Windows NT 10.0; Win64; x64) AppleWebKit/537.36 (KHTML, like Gecko) Chrome/126.0.0.0 Safari/537.36",WebKit,Chrome,126.0.0.0,Windows,10.0,https://app.prolific.com/,"en-US,en;q=0.9",mn4gr9lqh,5e25be7c5514e680ef436338,,,,,,<div style='display:flex; justify-content:center; align-items:center;'><img src='img/sign.png' style='width:140px; height:auto; margin-right:10px;' /><img src='img/map1_bus_grass_shortest.png' style='width:460px; height:auto;' /></div>,image_trial,,50,img/map1_bus_grass_shortest.png
6912,11,html-slider-response,14,182209,0.0-14.0,13,1,2024-07-18 20:14:11,f601377285a5b1d9cf715ba604643eb5,172.58.1.86,"Mozilla/5.0 (Windows NT 10.0; Win64; x64) AppleWebKit/537.36 (KHTML, like Gecko) Chrome/126.0.0.0 Safari/537.36",WebKit,Chrome,126.0.0.0,Windows,10.0,https://app.prolific.com/,"en-US,en;q=0.9",mn4gr9lqh,5e25be7c5514e680ef436338,,,,,,<div style='display:flex; justify-content:center; align-items:center;'><img src='img/sign.png' style='width:140px; height:auto; margin-right:10px;' /><img src='img/map3_hospital_grass_shortest.png' style='width:460px; height:auto;' /></div>,image_trial,,50,img/map3_hospital_grass_shortest.png
6867,14,html-slider-response,15,189079,0.0-15.0,13,1,2024-07-18 20:14:11,f601377285a5b1d9cf715ba604643eb5,172.58.1.86,"Mozilla/5.0 (Windows NT 10.0; Win64; x64) AppleWebKit/537.36 (KHTML, like Gecko) Chrome/126.0.0.0 Safari/537.36",WebKit,Chrome,126.0.0.0,Windows,10.0,https://app.prolific.com/,"en-US,en;q=0.9",mn4gr9lqh,5e25be7c5514e680ef436338,,,,,,<div style='display:flex; justify-content:center; align-items:center;'><img src='img/sign.png' style='width:140px; height:auto; margin-right:10px;' /><img src='img/map3_coffee_grass_wandering.png' style='width:460px; height:auto;' /></div>,image_trial,,50,img/map3_coffee_grass_wandering.png
6280,85,html-slider-response,16,195361,0.0-16.0,13,1,2024-07-18 20:14:11,f601377285a5b1d9cf715ba604643eb5,172.58.1.86,"Mozilla/5.0 (Windows NT 10.0; Win64; x64) AppleWebKit/537.36 (KHTML, like Gecko) Chrome/126.0.0.0 Safari/537.36",WebKit,Chrome,126.0.0.0,Windows,10.0,https://app.prolific.com/,"en-US,en;q=0.9",mn4gr9lqh,5e25be7c5514e680ef436338,,,,,,<div style='display:flex; justify-content:center; align-items:center;'><img src='img/sign.png' style='width:140px; height:auto; margin-right:10px;' /><img src='img/map2_hospital_sidewalk_shortest.png' style='width:460px; height:auto;' /></div>,image_trial,,50,img/map2_hospital_sidewalk_shortest.png
5459,14,html-slider-response,17,200823,0.0-17.0,13,1,2024-07-18 20:14:11,f601377285a5b1d9cf715ba604643eb5,172.58.1.86,"Mozilla/5.0 (Windows NT 10.0; Win64; x64) AppleWebKit/537.36 (KHTML, like Gecko) Chrome/126.0.0.0 Safari/537.36",WebKit,Chrome,126.0.0.0,Windows,10.0,https://app.prolific.com/,"en-US,en;q=0.9",mn4gr9lqh,5e25be7c5514e680ef436338,,,,,,<div style='display:flex; justify-content:center; align-items:center;'><img src='img/sign.png' style='width:140px; height:auto; margin-right:10px;' /><img src='img/map1_hospital_grass_wandering.png' style='width:460px; height:auto;' /></div>,image_trial,,50,img/map1_hospital_grass_wandering.png
5392,11,html-slider-response,18,206213,0.0-18.0,13,1,2024-07-18 20:14:11,f601377285a5b1d9cf715ba604643eb5,172.58.1.86,"Mozilla/5.0 (Windows NT 10.0; Win64; x64) AppleWebKit/537.36 (KHTML, like Gecko) Chrome/126.0.0.0 Safari/537.36",WebKit,Chrome,126.0.0.0,Windows,10.0,https://app.prolific.com/,"en-US,en;q=0.9",mn4gr9lqh,5e25be7c5514e680ef436338,,,,,,<div style='display:flex; justify-content:center; align-items:center;'><img src='img/sign.png' style='width:140px; height:auto; margin-right:10px;' /><img src='img/map3_hospital_grass_wandering.png' style='width:460px; height:auto;' /></div>,image_trial,,50,img/map3_hospital_grass_wandering.png
5387,85,html-slider-response,19,211603,0.0-19.0,13,1,2024-07-18 20:14:11,f601377285a5b1d9cf715ba604643eb5,172.58.1.86,"Mozilla/5.0 (Windows NT 10.0; Win64; x64) AppleWebKit/537.36 (KHTML, like Gecko) Chrome/126.0.0.0 Safari/537.36",WebKit,Chrome,126.0.0.0,Windows,10.0,https://app.prolific.com/,"en-US,en;q=0.9",mn4gr9lqh,5e25be7c5514e680ef436338,,,,,,<div style='display:flex; justify-content:center; align-items:center;'><img src='img/sign.png' style='width:140px; height:auto; margin-right:10px;' /><img src='img/map3_coffee_sidewalk_shortest.png' style='width:460px; height:auto;' /></div>,image_trial,,50,img/map3_coffee_sidewalk_shortest.png
6545,41,html-slider-response,20,218151,0.0-20.0,13,1,2024-07-18 20:14:11,f601377285a5b1d9cf715ba604643eb5,172.58.1.86,"Mozilla/5.0 (Windows NT 10.0; Win64; x64) AppleWebKit/537.36 (KHTML, like Gecko) Chrome/126.0.0.0 Safari/537.36",WebKit,Chrome,126.0.0.0,Windows,10.0,https://app.prolific.com/,"en-US,en;q=0.9",mn4gr9lqh,5e25be7c5514e680ef436338,,,,,,<div style='display:flex; justify-content:center; align-items:center;'><img src='img/sign.png' style='width:140px; height:auto; margin-right:10px;' /><img src='img/map1_hospital_grass_shortest.png' style='width:460px; height:auto;' /></div>,image_trial,,50,img/map1_hospital_grass_shortest.png
7878,9,html-slider-response,21,226032,0.0-21.0,13,1,2024-07-18 20:14:11,f601377285a5b1d9cf715ba604643eb5,172.58.1.86,"Mozilla/5.0 (Windows NT 10.0; Win64; x64) AppleWebKit/537.36 (KHTML, like Gecko) Chrome/126.0.0.0 Safari/537.36",WebKit,Chrome,126.0.0.0,Windows,10.0,https://app.prolific.com/,"en-US,en;q=0.9",mn4gr9lqh,5e25be7c5514e680ef436338,,,,,,<div style='display:flex; justify-content:center; align-items:center;'><img src='img/sign.png' style='width:140px; height:auto; margin-right:10px;' /><img src='img/map3_bus_grass_shortest.png' style='width:460px; height:auto;' /></div>,image_trial,,50,img/map3_bus_grass_shortest.png
5879,93,html-slider-response,22,231914,0.0-22.0,13,1,2024-07-18 20:14:11,f601377285a5b1d9cf715ba604643eb5,172.58.1.86,"Mozilla/5.0 (Windows NT 10.0; Win64; x64) AppleWebKit/537.36 (KHTML, like Gecko) Chrome/126.0.0.0 Safari/537.36",WebKit,Chrome,126.0.0.0,Windows,10.0,https://app.prolific.com/,"en-US,en;q=0.9",mn4gr9lqh,5e25be7c5514e680ef436338,,,,,,<div style='display:flex; justify-content:center; align-items:center;'><img src='img/sign.png' style='width:140px; height:auto; margin-right:10px;' /><img src='img/map1_coffee_sidewalk_shortest.png' style='width:460px; height:auto;' /></div>,image_trial,,50,img/map1_coffee_sidewalk_shortest.png
6501,20,html-slider-response,23,238418,0.0-23.0,13,1,2024-07-18 20:14:11,f601377285a5b1d9cf715ba604643eb5,172.58.1.86,"Mozilla/5.0 (Windows NT 10.0; Win64; x64) AppleWebKit/537.36 (KHTML, like Gecko) Chrome/126.0.0.0 Safari/537.36",WebKit,Chrome,126.0.0.0,Windows,10.0,https://app.prolific.com/,"en-US,en;q=0.9",mn4gr9lqh,5e25be7c5514e680ef436338,,,,,,<div style='display:flex; justify-content:center; align-items:center;'><img src='img/sign.png' style='width:140px; height:auto; margin-right:10px;' /><img src='img/map2_hospital_grass_shortest.png' style='width:460px; height:auto;' /></div>,image_trial,,50,img/map2_hospital_grass_shortest.png
5801,24,html-slider-response,24,244222,0.0-24.0,13,1,2024-07-18 20:14:11,f601377285a5b1d9cf715ba604643eb5,172.58.1.86,"Mozilla/5.0 (Windows NT 10.0; Win64; x64) AppleWebKit/537.36 (KHTML, like Gecko) Chrome/126.0.0.0 Safari/537.36",WebKit,Chrome,126.0.0.0,Windows,10.0,https://app.prolific.com/,"en-US,en;q=0.9",mn4gr9lqh,5e25be7c5514e680ef436338,,,,,,<div style='display:flex; justify-content:center; align-items:center;'><img src='img/sign.png' style='width:140px; height:auto; margin-right:10px;' /><img src='img/map2_coffee_grass_wandering.png' style='width:460px; height:auto;' /></div>,image_trial,,50,img/map2_coffee_grass_wandering.png
5203,19,html-slider-response,25,249429,0.0-25.0,13,1,2024-07-18 20:14:11,f601377285a5b1d9cf715ba604643eb5,172.58.1.86,"Mozilla/5.0 (Windows NT 10.0; Win64; x64) AppleWebKit/537.36 (KHTML, like Gecko) Chrome/126.0.0.0 Safari/537.36",WebKit,Chrome,126.0.0.0,Windows,10.0,https://app.prolific.com/,"en-US,en;q=0.9",mn4gr9lqh,5e25be7c5514e680ef436338,,,,,,<div style='display:flex; justify-content:center; align-items:center;'><img src='img/sign.png' style='width:140px; height:auto; margin-right:10px;' /><img src='img/map2_bus_grass_shortest.png' style='width:460px; height:auto;' /></div>,image_trial,,50,img/map2_bus_grass_shortest.png
5357,15,html-slider-response,26,254789,0.0-26.0,13,1,2024-07-18 20:14:11,f601377285a5b1d9cf715ba604643eb5,172.58.1.86,"Mozilla/5.0 (Windows NT 10.0; Win64; x64) AppleWebKit/537.36 (KHTML, like Gecko) Chrome/126.0.0.0 Safari/537.36",WebKit,Chrome,126.0.0.0,Windows,10.0,https://app.prolific.com/,"en-US,en;q=0.9",mn4gr9lqh,5e25be7c5514e680ef436338,,,,,,<div style='display:flex; justify-content:center; align-items:center;'><img src='img/sign.png' style='width:140px; height:auto; margin-right:10px;' /><img src='img/map1_coffee_grass_shortest.png' style='width:460px; height:auto;' /></div>,image_trial,,50,img/map1_coffee_grass_shortest.png
5623,80,html-slider-response,27,260414,0.0-27.0,13,1,2024-07-18 20:14:11,f601377285a5b1d9cf715ba604643eb5,172.58.1.86,"Mozilla/5.0 (Windows NT 10.0; Win64; x64) AppleWebKit/537.36 (KHTML, like Gecko) Chrome/126.0.0.0 Safari/537.36",WebKit,Chrome,126.0.0.0,Windows,10.0,https://app.prolific.com/,"en-US,en;q=0.9",mn4gr9lqh,5e25be7c5514e680ef436338,,,,,,<div style='display:flex; justify-content:center; align-items:center;'><img src='img/sign.png' style='width:140px; height:auto; margin-right:10px;' /><img src='img/map3_bus_sidewalk_shortest.png' style='width:460px; height:auto;' /></div>,image_trial,,50,img/map3_bus_sidewalk_shortest.png
5618,25,html-slider-response,28,266040,0.0-28.0,13,1,2024-07-18 20:14:11,f601377285a5b1d9cf715ba604643eb5,172.58.1.86,"Mozilla/5.0 (Windows NT 10.0; Win64; x64) AppleWebKit/537.36 (KHTML, like Gecko) Chrome/126.0.0.0 Safari/537.36",WebKit,Chrome,126.0.0.0,Windows,10.0,https://app.prolific.com/,"en-US,en;q=0.9",mn4gr9lqh,5e25be7c5514e680ef436338,,,,,,<div style='display:flex; justify-content:center; align-items:center;'><img src='img/sign.png' style='width:140px; height:auto; margin-right:10px;' /><img src='img/map2_coffee_grass_shortest.png' style='width:460px; height:auto;' /></div>,image_trial,,50,img/map2_coffee_grass_shortest.png
5120,88,html-slider-response,29,271163,0.0-29.0,13,1,2024-07-18 20:14:11,f601377285a5b1d9cf715ba604643eb5,172.58.1.86,"Mozilla/5.0 (Windows NT 10.0; Win64; x64) AppleWebKit/537.36 (KHTML, like Gecko) Chrome/126.0.0.0 Safari/537.36",WebKit,Chrome,126.0.0.0,Windows,10.0,https://app.prolific.com/,"en-US,en;q=0.9",mn4gr9lqh,5e25be7c5514e680ef436338,,,,,,<div style='display:flex; justify-content:center; align-items:center;'><img src='img/sign.png' style='width:140px; height:auto; margin-right:10px;' /><img src='img/map3_hospital_sidewalk_shortest.png' style='width:460px; height:auto;' /></div>,image_trial,,50,img/map3_hospital_sidewalk_shortest.png
5600,15,html-slider-response,30,276766,0.0-30.0,13,1,2024-07-18 20:14:11,f601377285a5b1d9cf715ba604643eb5,172.58.1.86,"Mozilla/5.0 (Windows NT 10.0; Win64; x64) AppleWebKit/537.36 (KHTML, like Gecko) Chrome/126.0.0.0 Safari/537.36",WebKit,Chrome,126.0.0.0,Windows,10.0,https://app.prolific.com/,"en-US,en;q=0.9",mn4gr9lqh,5e25be7c5514e680ef436338,,,,,,<div style='display:flex; justify-content:center; align-items:center;'><img src='img/sign.png' style='width:140px; height:auto; margin-right:10px;' /><img src='img/map2_bus_grass_wandering.png' style='width:460px; height:auto;' /></div>,image_trial,,50,img/map2_bus_grass_wandering.png
5955,4,html-slider-response,31,282724,0.0-31.0,13,1,2024-07-18 20:14:11,f601377285a5b1d9cf715ba604643eb5,172.58.1.86,"Mozilla/5.0 (Windows NT 10.0; Win64; x64) AppleWebKit/537.36 (KHTML, like Gecko) Chrome/126.0.0.0 Safari/537.36",WebKit,Chrome,126.0.0.0,Windows,10.0,https://app.prolific.com/,"en-US,en;q=0.9",mn4gr9lqh,5e25be7c5514e680ef436338,,,,,,<div style='display:flex; justify-content:center; align-items:center;'><img src='img/sign.png' style='width:140px; height:auto; margin-right:10px;' /><img src='img/map3_coffee_grass_shortest.png' style='width:460px; height:auto;' /></div>,image_trial,,50,img/map3_coffee_grass_shortest.png
5699,96,html-slider-response,32,288427,0.0-32.0,13,1,2024-07-18 20:14:11,f601377285a5b1d9cf715ba604643eb5,172.58.1.86,"Mozilla/5.0 (Windows NT 10.0; Win64; x64) AppleWebKit/537.36 (KHTML, like Gecko) Chrome/126.0.0.0 Safari/537.36",WebKit,Chrome,126.0.0.0,Windows,10.0,https://app.prolific.com/,"en-US,en;q=0.9",mn4gr9lqh,5e25be7c5514e680ef436338,,,,,,<div style='display:flex; justify-content:center; align-items:center;'><img src='img/sign.png' style='width:140px; height:auto; margin-right:10px;' /><img src='img/map2_bus_sidewalk_shortest.png' style='width:460px; height:auto;' /></div>,image_trial,,50,img/map2_bus_sidewalk_shortest.png
5876,10,html-slider-response,33,294306,0.0-33.0,13,1,2024-07-18 20:14:11,f601377285a5b1d9cf715ba604643eb5,172.58.1.86,"Mozilla/5.0 (Windows NT 10.0; Win64; x64) AppleWebKit/537.36 (KHTML, like Gecko) Chrome/126.0.0.0 Safari/537.36",WebKit,Chrome,126.0.0.0,Windows,10.0,https://app.prolific.com/,"en-US,en;q=0.9",mn4gr9lqh,5e25be7c5514e680ef436338,,,,,,<div style='display:flex; justify-content:center; align-items:center;'><img src='img/sign.png' style='width:140px; height:auto; margin-right:10px;' /><img src='img/map1_coffee_grass_wandering.png' style='width:460px; height:auto;' /></div>,image_trial,,50,img/map1_coffee_grass_wandering.png
13741,"[{""name"":""understand"",""value"":""yes""},{""name"":""problems"",""value"":""no""},{""name"":""age"",""value"":""33""},{""name"":""gender"",""value"":""female""},{""name"":""comments"",""value"":""no""}]",survey-html-form,34,308051,0.0-34.0,13,1,2024-07-18 20:14:11,f601377285a5b1d9cf715ba604643eb5,172.58.1.86,"Mozilla/5.0 (Windows NT 10.0; Win64; x64) AppleWebKit/537.36 (KHTML, like Gecko) Chrome/126.0.0.0 Safari/537.36",WebKit,Chrome,126.0.0.0,Windows,10.0,https://app.prolific.com/,"en-US,en;q=0.9",mn4gr9lqh,5e25be7c5514e680ef436338,,,,,,,debrief,,,
13071,"{""Q0"":""mn4gr9lqh""}",survey-text,35,321137,0.0-35.0,13,1,2024-07-18 20:14:11,f601377285a5b1d9cf715ba604643eb5,172.58.1.86,"Mozilla/5.0 (Windows NT 10.0; Win64; x64) AppleWebKit/537.36 (KHTML, like Gecko) Chrome/126.0.0.0 Safari/537.36",WebKit,Chrome,126.0.0.0,Windows,10.0,https://app.prolific.com/,"en-US,en;q=0.9",mn4gr9lqh,5e25be7c5514e680ef436338,,,,,,,,,,
3054,"{""prolific_id"":""667d85ec48a57d13d4cd295b""}",survey-text,0,3069,0.0-0.0,14,1,2024-07-18 20:15:37,f601377285a5b1d9cf715ba604643eb5,98.194.84.59,"Mozilla/5.0 (Windows NT 10.0; Win64; x64) AppleWebKit/537.36 (KHTML, like Gecko) Chrome/126.0.0.0 Safari/537.36",WebKit,Chrome,126.0.0.0,Windows,10.0,https://app.prolific.com/,"en-US,en;q=0.9,es;q=0.8",8t235ojep,667d85ec48a57d13d4cd295b,,,,,,,,,,
,,preload,1,4220,0.0-1.0,14,1,2024-07-18 20:15:37,f601377285a5b1d9cf715ba604643eb5,98.194.84.59,"Mozilla/5.0 (Windows NT 10.0; Win64; x64) AppleWebKit/537.36 (KHTML, like Gecko) Chrome/126.0.0.0 Safari/537.36",WebKit,Chrome,126.0.0.0,Windows,10.0,https://app.prolific.com/,"en-US,en;q=0.9,es;q=0.8",8t235ojep,667d85ec48a57d13d4cd295b,true,false,[],[],[],,,,,
2134, ,html-keyboard-response,2,6355,0.0-2.0,14,1,2024-07-18 20:15:37,f601377285a5b1d9cf715ba604643eb5,98.194.84.59,"Mozilla/5.0 (Windows NT 10.0; Win64; x64) AppleWebKit/537.36 (KHTML, like Gecko) Chrome/126.0.0.0 Safari/537.36",WebKit,Chrome,126.0.0.0,Windows,10.0,https://app.prolific.com/,"en-US,en;q=0.9,es;q=0.8",8t235ojep,667d85ec48a57d13d4cd295b,,,,,,"<p style=""text-align:center;width:700px;""> Welcome to the experiment! This study takes most people around 10 minutes to complete. Please complete it in one sitting.</p>",,,,
23122,y,html-keyboard-response,3,29479,0.0-3.0,14,1,2024-07-18 20:15:37,f601377285a5b1d9cf715ba604643eb5,98.194.84.59,"Mozilla/5.0 (Windows NT 10.0; Win64; x64) AppleWebKit/537.36 (KHTML, like Gecko) Chrome/126.0.0.0 Safari/537.36",WebKit,Chrome,126.0.0.0,Windows,10.0,https://app.prolific.com/,"en-US,en;q=0.9,es;q=0.8",8t235ojep,667d85ec48a57d13d4cd295b,,,,,,"<p style = ""font-size:16px;"">MIT Computational Cognitive Science Lab</p><h4>Press the 'y' key to consent.</h4><div style = ""background-color:#f2f2f2;""><h3>Informed Consent Form</h3><div style=""text-align:left;width:700px;""><p style = ""font-size:16px;"">In this study, you will be asked to read a set of instructions that describe a particular scenario, and you will then be asked to perform a simple task relating to that scenario. There will also be comprehension and attention checks. Participants who do not answer these checks correctly cannot be approved. In order to get credit for this study, you must read all the questions fully and answer honestly. You may only complete this study once. If you complete this study multiple times, you will be rejected.</p><p style = ""font-size:16px;"">This study is part of a MIT scientific research project. Your decision to complete this study is voluntary. There is no way for us to identify you. The only information we will have, in addition to your responses, is the time at which you completed the survey. The results of the research may be presented at scientific meetings or published in scientific journals. Pressing the ""Y"" key indicates that you are at least 18 years of age, and agree to complete this study voluntarily. Press the ""Y"" key to confirm your agreement and continue.</p></div>",,,,
33423,"{""instructions1"":""common destinations that people might travel to in a town""}",survey-text,4,62919,0.0-4.0,14,1,2024-07-18 20:15:37,f601377285a5b1d9cf715ba604643eb5,98.194.84.59,"Mozilla/5.0 (Windows NT 10.0; Win64; x64) AppleWebKit/537.36 (KHTML, like Gecko) Chrome/126.0.0.0 Safari/537.36",WebKit,Chrome,126.0.0.0,Windows,10.0,https://app.prolific.com/,"en-US,en;q=0.9,es;q=0.8",8t235ojep,667d85ec48a57d13d4cd295b,,,,,,,instructions,,,
13175,"{""instructions2"":""yes""}",survey-text,5,76104,0.0-5.0,14,1,2024-07-18 20:15:37,f601377285a5b1d9cf715ba604643eb5,98.194.84.59,"Mozilla/5.0 (Windows NT 10.0; Win64; x64) AppleWebKit/537.36 (KHTML, like Gecko) Chrome/126.0.0.0 Safari/537.36",WebKit,Chrome,126.0.0.0,Windows,10.0,https://app.prolific.com/,"en-US,en;q=0.9,es;q=0.8",8t235ojep,667d85ec48a57d13d4cd295b,,,,,,,instructions,,,
41357,"{""map_attention"":""Maps showing a small city, park, and destinations"",""squares_attention"":""Two terrains (grass and sidewalk) and three destinations (school, train station, ice cream shop)"",""answer_attention"":""Based on your own best judgment based on the map that you see, as well as your <i>own</i> common sense intuitions about towns and these kinds of destinations in general.""}",survey-multi-choice,6,117465,0.0-6.0,14,1,2024-07-18 20:15:37,f601377285a5b1d9cf715ba604643eb5,98.194.84.59,"Mozilla/5.0 (Windows NT 10.0; Win64; x64) AppleWebKit/537.36 (KHTML, like Gecko) Chrome/126.0.0.0 Safari/537.36",WebKit,Chrome,126.0.0.0,Windows,10.0,https://app.prolific.com/,"en-US,en;q=0.9,es;q=0.8",8t235ojep,667d85ec48a57d13d4cd295b,,,,,,,,"[0,1,2]",,
24085,71,html-slider-response,7,141559,0.0-7.0,14,1,2024-07-18 20:15:37,f601377285a5b1d9cf715ba604643eb5,98.194.84.59,"Mozilla/5.0 (Windows NT 10.0; Win64; x64) AppleWebKit/537.36 (KHTML, like Gecko) Chrome/126.0.0.0 Safari/537.36",WebKit,Chrome,126.0.0.0,Windows,10.0,https://app.prolific.com/,"en-US,en;q=0.9,es;q=0.8",8t235ojep,667d85ec48a57d13d4cd295b,,,,,,<div style='display:flex; justify-content:center; align-items:center;'><img src='img/sign.png' style='width:140px; height:auto; margin-right:10px;' /><img src='img/map3_hospital_grass_wandering.png' style='width:460px; height:auto;' /></div>,image_trial,,50,img/map3_hospital_grass_wandering.png
9399,86,html-slider-response,8,150961,0.0-8.0,14,1,2024-07-18 20:15:37,f601377285a5b1d9cf715ba604643eb5,98.194.84.59,"Mozilla/5.0 (Windows NT 10.0; Win64; x64) AppleWebKit/537.36 (KHTML, like Gecko) Chrome/126.0.0.0 Safari/537.36",WebKit,Chrome,126.0.0.0,Windows,10.0,https://app.prolific.com/,"en-US,en;q=0.9,es;q=0.8",8t235ojep,667d85ec48a57d13d4cd295b,,,,,,<div style='display:flex; justify-content:center; align-items:center;'><img src='img/sign.png' style='width:140px; height:auto; margin-right:10px;' /><img src='img/map2_hospital_sidewalk_shortest.png' style='width:460px; height:auto;' /></div>,image_trial,,50,img/map2_hospital_sidewalk_shortest.png
10299,29,html-slider-response,9,161263,0.0-9.0,14,1,2024-07-18 20:15:37,f601377285a5b1d9cf715ba604643eb5,98.194.84.59,"Mozilla/5.0 (Windows NT 10.0; Win64; x64) AppleWebKit/537.36 (KHTML, like Gecko) Chrome/126.0.0.0 Safari/537.36",WebKit,Chrome,126.0.0.0,Windows,10.0,https://app.prolific.com/,"en-US,en;q=0.9,es;q=0.8",8t235ojep,667d85ec48a57d13d4cd295b,,,,,,<div style='display:flex; justify-content:center; align-items:center;'><img src='img/sign.png' style='width:140px; height:auto; margin-right:10px;' /><img src='img/map1_bus_grass_shortest.png' style='width:460px; height:auto;' /></div>,image_trial,,50,img/map1_bus_grass_shortest.png
3918,34,html-slider-response,10,165184,0.0-10.0,14,1,2024-07-18 20:15:37,f601377285a5b1d9cf715ba604643eb5,98.194.84.59,"Mozilla/5.0 (Windows NT 10.0; Win64; x64) AppleWebKit/537.36 (KHTML, like Gecko) Chrome/126.0.0.0 Safari/537.36",WebKit,Chrome,126.0.0.0,Windows,10.0,https://app.prolific.com/,"en-US,en;q=0.9,es;q=0.8",8t235ojep,667d85ec48a57d13d4cd295b,,,,,,<div style='display:flex; justify-content:center; align-items:center;'><img src='img/sign.png' style='width:140px; height:auto; margin-right:10px;' /><img src='img/map3_coffee_grass_wandering.png' style='width:460px; height:auto;' /></div>,image_trial,,50,img/map3_coffee_grass_wandering.png
2822,70,html-slider-response,11,168009,0.0-11.0,14,1,2024-07-18 20:15:37,f601377285a5b1d9cf715ba604643eb5,98.194.84.59,"Mozilla/5.0 (Windows NT 10.0; Win64; x64) AppleWebKit/537.36 (KHTML, like Gecko) Chrome/126.0.0.0 Safari/537.36",WebKit,Chrome,126.0.0.0,Windows,10.0,https://app.prolific.com/,"en-US,en;q=0.9,es;q=0.8",8t235ojep,667d85ec48a57d13d4cd295b,,,,,,<div style='display:flex; justify-content:center; align-items:center;'><img src='img/sign.png' style='width:140px; height:auto; margin-right:10px;' /><img src='img/map1_hospital_sidewalk_shortest.png' style='width:460px; height:auto;' /></div>,image_trial,,50,img/map1_hospital_sidewalk_shortest.png
4572,73,html-slider-response,12,172584,0.0-12.0,14,1,2024-07-18 20:15:37,f601377285a5b1d9cf715ba604643eb5,98.194.84.59,"Mozilla/5.0 (Windows NT 10.0; Win64; x64) AppleWebKit/537.36 (KHTML, like Gecko) Chrome/126.0.0.0 Safari/537.36",WebKit,Chrome,126.0.0.0,Windows,10.0,https://app.prolific.com/,"en-US,en;q=0.9,es;q=0.8",8t235ojep,667d85ec48a57d13d4cd295b,,,,,,<div style='display:flex; justify-content:center; align-items:center;'><img src='img/sign.png' style='width:140px; height:auto; margin-right:10px;' /><img src='img/map3_hospital_sidewalk_shortest.png' style='width:460px; height:auto;' /></div>,image_trial,,50,img/map3_hospital_sidewalk_shortest.png
8104,10,html-slider-response,13,180691,0.0-13.0,14,1,2024-07-18 20:15:37,f601377285a5b1d9cf715ba604643eb5,98.194.84.59,"Mozilla/5.0 (Windows NT 10.0; Win64; x64) AppleWebKit/537.36 (KHTML, like Gecko) Chrome/126.0.0.0 Safari/537.36",WebKit,Chrome,126.0.0.0,Windows,10.0,https://app.prolific.com/,"en-US,en;q=0.9,es;q=0.8",8t235ojep,667d85ec48a57d13d4cd295b,,,,,,<div style='display:flex; justify-content:center; align-items:center;'><img src='img/sign.png' style='width:140px; height:auto; margin-right:10px;' /><img src='img/map2_bus_grass_wandering.png' style='width:460px; height:auto;' /></div>,image_trial,,50,img/map2_bus_grass_wandering.png
3709,82,html-slider-response,14,184403,0.0-14.0,14,1,2024-07-18 20:15:37,f601377285a5b1d9cf715ba604643eb5,98.194.84.59,"Mozilla/5.0 (Windows NT 10.0; Win64; x64) AppleWebKit/537.36 (KHTML, like Gecko) Chrome/126.0.0.0 Safari/537.36",WebKit,Chrome,126.0.0.0,Windows,10.0,https://app.prolific.com/,"en-US,en;q=0.9,es;q=0.8",8t235ojep,667d85ec48a57d13d4cd295b,,,,,,<div style='display:flex; justify-content:center; align-items:center;'><img src='img/sign.png' style='width:140px; height:auto; margin-right:10px;' /><img src='img/map3_bus_sidewalk_shortest.png' style='width:460px; height:auto;' /></div>,image_trial,,50,img/map3_bus_sidewalk_shortest.png
3239,31,html-slider-response,15,187645,0.0-15.0,14,1,2024-07-18 20:15:37,f601377285a5b1d9cf715ba604643eb5,98.194.84.59,"Mozilla/5.0 (Windows NT 10.0; Win64; x64) AppleWebKit/537.36 (KHTML, like Gecko) Chrome/126.0.0.0 Safari/537.36",WebKit,Chrome,126.0.0.0,Windows,10.0,https://app.prolific.com/,"en-US,en;q=0.9,es;q=0.8",8t235ojep,667d85ec48a57d13d4cd295b,,,,,,<div style='display:flex; justify-content:center; align-items:center;'><img src='img/sign.png' style='width:140px; height:auto; margin-right:10px;' /><img src='img/map2_bus_grass_shortest.png' style='width:460px; height:auto;' /></div>,image_trial,,50,img/map2_bus_grass_shortest.png
4468,41,html-slider-response,16,192116,0.0-16.0,14,1,2024-07-18 20:15:37,f601377285a5b1d9cf715ba604643eb5,98.194.84.59,"Mozilla/5.0 (Windows NT 10.0; Win64; x64) AppleWebKit/537.36 (KHTML, like Gecko) Chrome/126.0.0.0 Safari/537.36",WebKit,Chrome,126.0.0.0,Windows,10.0,https://app.prolific.com/,"en-US,en;q=0.9,es;q=0.8",8t235ojep,667d85ec48a57d13d4cd295b,,,,,,<div style='display:flex; justify-content:center; align-items:center;'><img src='img/sign.png' style='width:140px; height:auto; margin-right:10px;' /><img src='img/map1_hospital_grass_shortest.png' style='width:460px; height:auto;' /></div>,image_trial,,50,img/map1_hospital_grass_shortest.png
4534,50,html-slider-response,17,196654,0.0-17.0,14,1,2024-07-18 20:15:37,f601377285a5b1d9cf715ba604643eb5,98.194.84.59,"Mozilla/5.0 (Windows NT 10.0; Win64; x64) AppleWebKit/537.36 (KHTML, like Gecko) Chrome/126.0.0.0 Safari/537.36",WebKit,Chrome,126.0.0.0,Windows,10.0,https://app.prolific.com/,"en-US,en;q=0.9,es;q=0.8",8t235ojep,667d85ec48a57d13d4cd295b,,,,,,<div style='display:flex; justify-content:center; align-items:center;'><img src='img/sign.png' style='width:140px; height:auto; margin-right:10px;' /><img src='img/map2_bus_sidewalk_shortest.png' style='width:460px; height:auto;' /></div>,image_trial,,50,img/map2_bus_sidewalk_shortest.png
5456,35,html-slider-response,18,202112,0.0-18.0,14,1,2024-07-18 20:15:37,f601377285a5b1d9cf715ba604643eb5,98.194.84.59,"Mozilla/5.0 (Windows NT 10.0; Win64; x64) AppleWebKit/537.36 (KHTML, like Gecko) Chrome/126.0.0.0 Safari/537.36",WebKit,Chrome,126.0.0.0,Windows,10.0,https://app.prolific.com/,"en-US,en;q=0.9,es;q=0.8",8t235ojep,667d85ec48a57d13d4cd295b,,,,,,<div style='display:flex; justify-content:center; align-items:center;'><img src='img/sign.png' style='width:140px; height:auto; margin-right:10px;' /><img src='img/map2_coffee_grass_wandering.png' style='width:460px; height:auto;' /></div>,image_trial,,50,img/map2_coffee_grass_wandering.png
3692,51,html-slider-response,19,205807,0.0-19.0,14,1,2024-07-18 20:15:37,f601377285a5b1d9cf715ba604643eb5,98.194.84.59,"Mozilla/5.0 (Windows NT 10.0; Win64; x64) AppleWebKit/537.36 (KHTML, like Gecko) Chrome/126.0.0.0 Safari/537.36",WebKit,Chrome,126.0.0.0,Windows,10.0,https://app.prolific.com/,"en-US,en;q=0.9,es;q=0.8",8t235ojep,667d85ec48a57d13d4cd295b,,,,,,<div style='display:flex; justify-content:center; align-items:center;'><img src='img/sign.png' style='width:140px; height:auto; margin-right:10px;' /><img src='img/map3_hospital_grass_shortest.png' style='width:460px; height:auto;' /></div>,image_trial,,50,img/map3_hospital_grass_shortest.png
3397,56,html-slider-response,20,209207,0.0-20.0,14,1,2024-07-18 20:15:37,f601377285a5b1d9cf715ba604643eb5,98.194.84.59,"Mozilla/5.0 (Windows NT 10.0; Win64; x64) AppleWebKit/537.36 (KHTML, like Gecko) Chrome/126.0.0.0 Safari/537.36",WebKit,Chrome,126.0.0.0,Windows,10.0,https://app.prolific.com/,"en-US,en;q=0.9,es;q=0.8",8t235ojep,667d85ec48a57d13d4cd295b,,,,,,<div style='display:flex; justify-content:center; align-items:center;'><img src='img/sign.png' style='width:140px; height:auto; margin-right:10px;' /><img src='img/map1_coffee_sidewalk_shortest.png' style='width:460px; height:auto;' /></div>,image_trial,,50,img/map1_coffee_sidewalk_shortest.png
5215,36,html-slider-response,21,214426,0.0-21.0,14,1,2024-07-18 20:15:37,f601377285a5b1d9cf715ba604643eb5,98.194.84.59,"Mozilla/5.0 (Windows NT 10.0; Win64; x64) AppleWebKit/537.36 (KHTML, like Gecko) Chrome/126.0.0.0 Safari/537.36",WebKit,Chrome,126.0.0.0,Windows,10.0,https://app.prolific.com/,"en-US,en;q=0.9,es;q=0.8",8t235ojep,667d85ec48a57d13d4cd295b,,,,,,<div style='display:flex; justify-content:center; align-items:center;'><img src='img/sign.png' style='width:140px; height:auto; margin-right:10px;' /><img src='img/map1_coffee_grass_wandering.png' style='width:460px; height:auto;' /></div>,image_trial,,50,img/map1_coffee_grass_wandering.png
2284,73,html-slider-response,22,216711,0.0-22.0,14,1,2024-07-18 20:15:37,f601377285a5b1d9cf715ba604643eb5,98.194.84.59,"Mozilla/5.0 (Windows NT 10.0; Win64; x64) AppleWebKit/537.36 (KHTML, like Gecko) Chrome/126.0.0.0 Safari/537.36",WebKit,Chrome,126.0.0.0,Windows,10.0,https://app.prolific.com/,"en-US,en;q=0.9,es;q=0.8",8t235ojep,667d85ec48a57d13d4cd295b,,,,,,<div style='display:flex; justify-content:center; align-items:center;'><img src='img/sign.png' style='width:140px; height:auto; margin-right:10px;' /><img src='img/map3_coffee_sidewalk_shortest.png' style='width:460px; height:auto;' /></div>,image_trial,,50,img/map3_coffee_sidewalk_shortest.png
5871,37,html-slider-response,23,222586,0.0-23.0,14,1,2024-07-18 20:15:37,f601377285a5b1d9cf715ba604643eb5,98.194.84.59,"Mozilla/5.0 (Windows NT 10.0; Win64; x64) AppleWebKit/537.36 (KHTML, like Gecko) Chrome/126.0.0.0 Safari/537.36",WebKit,Chrome,126.0.0.0,Windows,10.0,https://app.prolific.com/,"en-US,en;q=0.9,es;q=0.8",8t235ojep,667d85ec48a57d13d4cd295b,,,,,,<div style='display:flex; justify-content:center; align-items:center;'><img src='img/sign.png' style='width:140px; height:auto; margin-right:10px;' /><img src='img/map3_bus_grass_wandering.png' style='width:460px; height:auto;' /></div>,image_trial,,50,img/map3_bus_grass_wandering.png
3456,34,html-slider-response,24,226045,0.0-24.0,14,1,2024-07-18 20:15:37,f601377285a5b1d9cf715ba604643eb5,98.194.84.59,"Mozilla/5.0 (Windows NT 10.0; Win64; x64) AppleWebKit/537.36 (KHTML, like Gecko) Chrome/126.0.0.0 Safari/537.36",WebKit,Chrome,126.0.0.0,Windows,10.0,https://app.prolific.com/,"en-US,en;q=0.9,es;q=0.8",8t235ojep,667d85ec48a57d13d4cd295b,,,,,,<div style='display:flex; justify-content:center; align-items:center;'><img src='img/sign.png' style='width:140px; height:auto; margin-right:10px;' /><img src='img/map1_bus_grass_wandering.png' style='width:460px; height:auto;' /></div>,image_trial,,50,img/map1_bus_grass_wandering.png
3455,33,html-slider-response,25,229503,0.0-25.0,14,1,2024-07-18 20:15:37,f601377285a5b1d9cf715ba604643eb5,98.194.84.59,"Mozilla/5.0 (Windows NT 10.0; Win64; x64) AppleWebKit/537.36 (KHTML, like Gecko) Chrome/126.0.0.0 Safari/537.36",WebKit,Chrome,126.0.0.0,Windows,10.0,https://app.prolific.com/,"en-US,en;q=0.9,es;q=0.8",8t235ojep,667d85ec48a57d13d4cd295b,,,,,,<div style='display:flex; justify-content:center; align-items:center;'><img src='img/sign.png' style='width:140px; height:auto; margin-right:10px;' /><img src='img/map3_coffee_grass_shortest.png' style='width:460px; height:auto;' /></div>,image_trial,,50,img/map3_coffee_grass_shortest.png
3827,32,html-slider-response,26,233333,0.0-26.0,14,1,2024-07-18 20:15:37,f601377285a5b1d9cf715ba604643eb5,98.194.84.59,"Mozilla/5.0 (Windows NT 10.0; Win64; x64) AppleWebKit/537.36 (KHTML, like Gecko) Chrome/126.0.0.0 Safari/537.36",WebKit,Chrome,126.0.0.0,Windows,10.0,https://app.prolific.com/,"en-US,en;q=0.9,es;q=0.8",8t235ojep,667d85ec48a57d13d4cd295b,,,,,,<div style='display:flex; justify-content:center; align-items:center;'><img src='img/sign.png' style='width:140px; height:auto; margin-right:10px;' /><img src='img/map3_bus_grass_shortest.png' style='width:460px; height:auto;' /></div>,image_trial,,50,img/map3_bus_grass_shortest.png
4199,61,html-slider-response,27,237536,0.0-27.0,14,1,2024-07-18 20:15:37,f601377285a5b1d9cf715ba604643eb5,98.194.84.59,"Mozilla/5.0 (Windows NT 10.0; Win64; x64) AppleWebKit/537.36 (KHTML, like Gecko) Chrome/126.0.0.0 Safari/537.36",WebKit,Chrome,126.0.0.0,Windows,10.0,https://app.prolific.com/,"en-US,en;q=0.9,es;q=0.8",8t235ojep,667d85ec48a57d13d4cd295b,,,,,,<div style='display:flex; justify-content:center; align-items:center;'><img src='img/sign.png' style='width:140px; height:auto; margin-right:10px;' /><img src='img/map2_coffee_grass_shortest.png' style='width:460px; height:auto;' /></div>,image_trial,,50,img/map2_coffee_grass_shortest.png
1924,63,html-slider-response,28,239463,0.0-28.0,14,1,2024-07-18 20:15:37,f601377285a5b1d9cf715ba604643eb5,98.194.84.59,"Mozilla/5.0 (Windows NT 10.0; Win64; x64) AppleWebKit/537.36 (KHTML, like Gecko) Chrome/126.0.0.0 Safari/537.36",WebKit,Chrome,126.0.0.0,Windows,10.0,https://app.prolific.com/,"en-US,en;q=0.9,es;q=0.8",8t235ojep,667d85ec48a57d13d4cd295b,,,,,,<div style='display:flex; justify-content:center; align-items:center;'><img src='img/sign.png' style='width:140px; height:auto; margin-right:10px;' /><img src='img/map2_hospital_grass_wandering.png' style='width:460px; height:auto;' /></div>,image_trial,,50,img/map2_hospital_grass_wandering.png
4794,30,html-slider-response,29,244260,0.0-29.0,14,1,2024-07-18 20:15:37,f601377285a5b1d9cf715ba604643eb5,98.194.84.59,"Mozilla/5.0 (Windows NT 10.0; Win64; x64) AppleWebKit/537.36 (KHTML, like Gecko) Chrome/126.0.0.0 Safari/537.36",WebKit,Chrome,126.0.0.0,Windows,10.0,https://app.prolific.com/,"en-US,en;q=0.9,es;q=0.8",8t235ojep,667d85ec48a57d13d4cd295b,,,,,,<div style='display:flex; justify-content:center; align-items:center;'><img src='img/sign.png' style='width:140px; height:auto; margin-right:10px;' /><img src='img/map1_coffee_grass_shortest.png' style='width:460px; height:auto;' /></div>,image_trial,,50,img/map1_coffee_grass_shortest.png
1736,69,html-slider-response,30,245999,0.0-30.0,14,1,2024-07-18 20:15:37,f601377285a5b1d9cf715ba604643eb5,98.194.84.59,"Mozilla/5.0 (Windows NT 10.0; Win64; x64) AppleWebKit/537.36 (KHTML, like Gecko) Chrome/126.0.0.0 Safari/537.36",WebKit,Chrome,126.0.0.0,Windows,10.0,https://app.prolific.com/,"en-US,en;q=0.9,es;q=0.8",8t235ojep,667d85ec48a57d13d4cd295b,,,,,,<div style='display:flex; justify-content:center; align-items:center;'><img src='img/sign.png' style='width:140px; height:auto; margin-right:10px;' /><img src='img/map2_coffee_sidewalk_shortest.png' style='width:460px; height:auto;' /></div>,image_trial,,50,img/map2_coffee_sidewalk_shortest.png
1819,71,html-slider-response,31,247821,0.0-31.0,14,1,2024-07-18 20:15:37,f601377285a5b1d9cf715ba604643eb5,98.194.84.59,"Mozilla/5.0 (Windows NT 10.0; Win64; x64) AppleWebKit/537.36 (KHTML, like Gecko) Chrome/126.0.0.0 Safari/537.36",WebKit,Chrome,126.0.0.0,Windows,10.0,https://app.prolific.com/,"en-US,en;q=0.9,es;q=0.8",8t235ojep,667d85ec48a57d13d4cd295b,,,,,,<div style='display:flex; justify-content:center; align-items:center;'><img src='img/sign.png' style='width:140px; height:auto; margin-right:10px;' /><img src='img/map1_bus_sidewalk_shortest.png' style='width:460px; height:auto;' /></div>,image_trial,,50,img/map1_bus_sidewalk_shortest.png
2013,37,html-slider-response,32,249836,0.0-32.0,14,1,2024-07-18 20:15:37,f601377285a5b1d9cf715ba604643eb5,98.194.84.59,"Mozilla/5.0 (Windows NT 10.0; Win64; x64) AppleWebKit/537.36 (KHTML, like Gecko) Chrome/126.0.0.0 Safari/537.36",WebKit,Chrome,126.0.0.0,Windows,10.0,https://app.prolific.com/,"en-US,en;q=0.9,es;q=0.8",8t235ojep,667d85ec48a57d13d4cd295b,,,,,,<div style='display:flex; justify-content:center; align-items:center;'><img src='img/sign.png' style='width:140px; height:auto; margin-right:10px;' /><img src='img/map1_hospital_grass_wandering.png' style='width:460px; height:auto;' /></div>,image_trial,,50,img/map1_hospital_grass_wandering.png
1522,38,html-slider-response,33,251361,0.0-33.0,14,1,2024-07-18 20:15:37,f601377285a5b1d9cf715ba604643eb5,98.194.84.59,"Mozilla/5.0 (Windows NT 10.0; Win64; x64) AppleWebKit/537.36 (KHTML, like Gecko) Chrome/126.0.0.0 Safari/537.36",WebKit,Chrome,126.0.0.0,Windows,10.0,https://app.prolific.com/,"en-US,en;q=0.9,es;q=0.8",8t235ojep,667d85ec48a57d13d4cd295b,,,,,,<div style='display:flex; justify-content:center; align-items:center;'><img src='img/sign.png' style='width:140px; height:auto; margin-right:10px;' /><img src='img/map2_hospital_grass_shortest.png' style='width:460px; height:auto;' /></div>,image_trial,,50,img/map2_hospital_grass_shortest.png
13168,"[{""name"":""understand"",""value"":""yes""},{""name"":""problems"",""value"":""no""},{""name"":""age"",""value"":""18""},{""name"":""gender"",""value"":""female""},{""name"":""comments"",""value"":""no""}]",survey-html-form,34,264534,0.0-34.0,14,1,2024-07-18 20:15:37,f601377285a5b1d9cf715ba604643eb5,98.194.84.59,"Mozilla/5.0 (Windows NT 10.0; Win64; x64) AppleWebKit/537.36 (KHTML, like Gecko) Chrome/126.0.0.0 Safari/537.36",WebKit,Chrome,126.0.0.0,Windows,10.0,https://app.prolific.com/,"en-US,en;q=0.9,es;q=0.8",8t235ojep,667d85ec48a57d13d4cd295b,,,,,,,debrief,,,
10720,"{""Q0"":""8t235ojep""}",survey-text,35,275266,0.0-35.0,14,1,2024-07-18 20:15:37,f601377285a5b1d9cf715ba604643eb5,98.194.84.59,"Mozilla/5.0 (Windows NT 10.0; Win64; x64) AppleWebKit/537.36 (KHTML, like Gecko) Chrome/126.0.0.0 Safari/537.36",WebKit,Chrome,126.0.0.0,Windows,10.0,https://app.prolific.com/,"en-US,en;q=0.9,es;q=0.8",8t235ojep,667d85ec48a57d13d4cd295b,,,,,,,,,,
3430,"{""prolific_id"":""663463a291e84b2572ef6105""}",survey-text,0,3465,0.0-0.0,15,1,2024-07-18 20:16:06,f601377285a5b1d9cf715ba604643eb5,99.62.96.224,"Mozilla/5.0 (Macintosh; Intel Mac OS X 10_15_7) AppleWebKit/605.1.15 (KHTML, like Gecko) Version/15.1 Safari/605.1.15",Macintosh,Safari,15.1,OS X,10_15_7,https://app.prolific.com/,"en-US,en;q=0.9",wofqgamot,663463a291e84b2572ef6105,,,,,,,,,,
,,preload,1,3763,0.0-1.0,15,1,2024-07-18 20:16:06,f601377285a5b1d9cf715ba604643eb5,99.62.96.224,"Mozilla/5.0 (Macintosh; Intel Mac OS X 10_15_7) AppleWebKit/605.1.15 (KHTML, like Gecko) Version/15.1 Safari/605.1.15",Macintosh,Safari,15.1,OS X,10_15_7,https://app.prolific.com/,"en-US,en;q=0.9",wofqgamot,663463a291e84b2572ef6105,true,false,[],[],[],,,,,
3808, ,html-keyboard-response,2,7573,0.0-2.0,15,1,2024-07-18 20:16:06,f601377285a5b1d9cf715ba604643eb5,99.62.96.224,"Mozilla/5.0 (Macintosh; Intel Mac OS X 10_15_7) AppleWebKit/605.1.15 (KHTML, like Gecko) Version/15.1 Safari/605.1.15",Macintosh,Safari,15.1,OS X,10_15_7,https://app.prolific.com/,"en-US,en;q=0.9",wofqgamot,663463a291e84b2572ef6105,,,,,,"<p style=""text-align:center;width:700px;""> Welcome to the experiment! This study takes most people around 10 minutes to complete. Please complete it in one sitting.</p>",,,,
4611,y,html-keyboard-response,3,12187,0.0-3.0,15,1,2024-07-18 20:16:06,f601377285a5b1d9cf715ba604643eb5,99.62.96.224,"Mozilla/5.0 (Macintosh; Intel Mac OS X 10_15_7) AppleWebKit/605.1.15 (KHTML, like Gecko) Version/15.1 Safari/605.1.15",Macintosh,Safari,15.1,OS X,10_15_7,https://app.prolific.com/,"en-US,en;q=0.9",wofqgamot,663463a291e84b2572ef6105,,,,,,"<p style = ""font-size:16px;"">MIT Computational Cognitive Science Lab</p><h4>Press the 'y' key to consent.</h4><div style = ""background-color:#f2f2f2;""><h3>Informed Consent Form</h3><div style=""text-align:left;width:700px;""><p style = ""font-size:16px;"">In this study, you will be asked to read a set of instructions that describe a particular scenario, and you will then be asked to perform a simple task relating to that scenario. There will also be comprehension and attention checks. Participants who do not answer these checks correctly cannot be approved. In order to get credit for this study, you must read all the questions fully and answer honestly. You may only complete this study once. If you complete this study multiple times, you will be rejected.</p><p style = ""font-size:16px;"">This study is part of a MIT scientific research project. Your decision to complete this study is voluntary. There is no way for us to identify you. The only information we will have, in addition to your responses, is the time at which you completed the survey. The results of the research may be presented at scientific meetings or published in scientific journals. Pressing the ""Y"" key indicates that you are at least 18 years of age, and agree to complete this study voluntarily. Press the ""Y"" key to confirm your agreement and continue.</p></div>",,,,
26765,"{""instructions1"":""common destinations""}",survey-text,4,38965,0.0-4.0,15,1,2024-07-18 20:16:06,f601377285a5b1d9cf715ba604643eb5,99.62.96.224,"Mozilla/5.0 (Macintosh; Intel Mac OS X 10_15_7) AppleWebKit/605.1.15 (KHTML, like Gecko) Version/15.1 Safari/605.1.15",Macintosh,Safari,15.1,OS X,10_15_7,https://app.prolific.com/,"en-US,en;q=0.9",wofqgamot,663463a291e84b2572ef6105,,,,,,,instructions,,,
8417,"{""instructions2"":""yes""}",survey-text,5,47398,0.0-5.0,15,1,2024-07-18 20:16:06,f601377285a5b1d9cf715ba604643eb5,99.62.96.224,"Mozilla/5.0 (Macintosh; Intel Mac OS X 10_15_7) AppleWebKit/605.1.15 (KHTML, like Gecko) Version/15.1 Safari/605.1.15",Macintosh,Safari,15.1,OS X,10_15_7,https://app.prolific.com/,"en-US,en;q=0.9",wofqgamot,663463a291e84b2572ef6105,,,,,,,instructions,,,
29165,"{""map_attention"":""Maps showing a small city, park, and destinations"",""squares_attention"":""Two terrains (grass and sidewalk) and three destinations (urgent care, bus stop, coffee shop)"",""answer_attention"":""Based on your own best judgment based on the map that you see, as well as your <i>own</i> common sense intuitions about towns and these kinds of destinations in general.""}",survey-multi-choice,6,76569,0.0-6.0,15,1,2024-07-18 20:16:06,f601377285a5b1d9cf715ba604643eb5,99.62.96.224,"Mozilla/5.0 (Macintosh; Intel Mac OS X 10_15_7) AppleWebKit/605.1.15 (KHTML, like Gecko) Version/15.1 Safari/605.1.15",Macintosh,Safari,15.1,OS X,10_15_7,https://app.prolific.com/,"en-US,en;q=0.9",wofqgamot,663463a291e84b2572ef6105,,,,,,,,"[0,1,2]",,
10871,33,html-slider-response,7,87448,0.0-7.0,15,1,2024-07-18 20:16:06,f601377285a5b1d9cf715ba604643eb5,99.62.96.224,"Mozilla/5.0 (Macintosh; Intel Mac OS X 10_15_7) AppleWebKit/605.1.15 (KHTML, like Gecko) Version/15.1 Safari/605.1.15",Macintosh,Safari,15.1,OS X,10_15_7,https://app.prolific.com/,"en-US,en;q=0.9",wofqgamot,663463a291e84b2572ef6105,,,,,,<div style='display:flex; justify-content:center; align-items:center;'><img src='img/sign.png' style='width:140px; height:auto; margin-right:10px;' /><img src='img/map2_coffee_grass_shortest.png' style='width:460px; height:auto;' /></div>,image_trial,,50,img/map2_coffee_grass_shortest.png
15777,100,html-slider-response,8,103231,0.0-8.0,15,1,2024-07-18 20:16:06,f601377285a5b1d9cf715ba604643eb5,99.62.96.224,"Mozilla/5.0 (Macintosh; Intel Mac OS X 10_15_7) AppleWebKit/605.1.15 (KHTML, like Gecko) Version/15.1 Safari/605.1.15",Macintosh,Safari,15.1,OS X,10_15_7,https://app.prolific.com/,"en-US,en;q=0.9",wofqgamot,663463a291e84b2572ef6105,,,,,,<div style='display:flex; justify-content:center; align-items:center;'><img src='img/sign.png' style='width:140px; height:auto; margin-right:10px;' /><img src='img/map1_hospital_sidewalk_shortest.png' style='width:460px; height:auto;' /></div>,image_trial,,50,img/map1_hospital_sidewalk_shortest.png
5944,11,html-slider-response,9,109181,0.0-9.0,15,1,2024-07-18 20:16:06,f601377285a5b1d9cf715ba604643eb5,99.62.96.224,"Mozilla/5.0 (Macintosh; Intel Mac OS X 10_15_7) AppleWebKit/605.1.15 (KHTML, like Gecko) Version/15.1 Safari/605.1.15",Macintosh,Safari,15.1,OS X,10_15_7,https://app.prolific.com/,"en-US,en;q=0.9",wofqgamot,663463a291e84b2572ef6105,,,,,,<div style='display:flex; justify-content:center; align-items:center;'><img src='img/sign.png' style='width:140px; height:auto; margin-right:10px;' /><img src='img/map3_coffee_grass_wandering.png' style='width:460px; height:auto;' /></div>,image_trial,,50,img/map3_coffee_grass_wandering.png
4928,12,html-slider-response,10,114115,0.0-10.0,15,1,2024-07-18 20:16:06,f601377285a5b1d9cf715ba604643eb5,99.62.96.224,"Mozilla/5.0 (Macintosh; Intel Mac OS X 10_15_7) AppleWebKit/605.1.15 (KHTML, like Gecko) Version/15.1 Safari/605.1.15",Macintosh,Safari,15.1,OS X,10_15_7,https://app.prolific.com/,"en-US,en;q=0.9",wofqgamot,663463a291e84b2572ef6105,,,,,,<div style='display:flex; justify-content:center; align-items:center;'><img src='img/sign.png' style='width:140px; height:auto; margin-right:10px;' /><img src='img/map2_hospital_grass_wandering.png' style='width:460px; height:auto;' /></div>,image_trial,,50,img/map2_hospital_grass_wandering.png
