rt,response,trial_type,trial_index,time_elapsed,internal_node_id,run_id,condition,recorded_at,source_code_version,ip,user_agent,device,browser,browser_version,platform,platform_version,referer,accept_language,ID,prolific_id,success,timeout,failed_images,failed_audio,failed_video,stimulus,trial_category,question_order,slider_start,stimulus_name
3296,"{""prolific_id"":""5decaac46e09cf3792805023""}",survey-text,0,3303,0.0-0.0,1,1,2024-07-22 20:19:40,c42334ae11bd6e373fa9fec6f52302a2,174.26.31.217,"Mozilla/5.0 (Windows NT 10.0; Win64; x64) AppleWebKit/537.36 (KHTML, like Gecko) Chrome/126.0.0.0 Safari/537.36",WebKit,Chrome,126.0.0.0,Windows,10.0,https://app.prolific.com/,"en-US,en;q=0.9",nugbygg0z,5decaac46e09cf3792805023,,,,,,,,,,
,,preload,1,5503,0.0-1.0,1,1,2024-07-22 20:19:40,c42334ae11bd6e373fa9fec6f52302a2,174.26.31.217,"Mozilla/5.0 (Windows NT 10.0; Win64; x64) AppleWebKit/537.36 (KHTML, like Gecko) Chrome/126.0.0.0 Safari/537.36",WebKit,Chrome,126.0.0.0,Windows,10.0,https://app.prolific.com/,"en-US,en;q=0.9",nugbygg0z,5decaac46e09cf3792805023,true,false,[],[],[],,,,,
2932, ,html-keyboard-response,2,8437,0.0-2.0,1,1,2024-07-22 20:19:40,c42334ae11bd6e373fa9fec6f52302a2,174.26.31.217,"Mozilla/5.0 (Windows NT 10.0; Win64; x64) AppleWebKit/537.36 (KHTML, like Gecko) Chrome/126.0.0.0 Safari/537.36",WebKit,Chrome,126.0.0.0,Windows,10.0,https://app.prolific.com/,"en-US,en;q=0.9",nugbygg0z,5decaac46e09cf3792805023,,,,,,"<p style=""text-align:center;width:700px;""> Welcome to the experiment! This study takes most people around 10 minutes to complete. Please complete it in one sitting.</p>",,,,
2046,y,html-keyboard-response,3,10483,0.0-3.0,1,1,2024-07-22 20:19:40,c42334ae11bd6e373fa9fec6f52302a2,174.26.31.217,"Mozilla/5.0 (Windows NT 10.0; Win64; x64) AppleWebKit/537.36 (KHTML, like Gecko) Chrome/126.0.0.0 Safari/537.36",WebKit,Chrome,126.0.0.0,Windows,10.0,https://app.prolific.com/,"en-US,en;q=0.9",nugbygg0z,5decaac46e09cf3792805023,,,,,,"<p style = ""font-size:16px;"">MIT Computational Cognitive Science Lab</p><h4>Press the 'y' key to consent.</h4><div style = ""background-color:#f2f2f2;""><h3>Informed Consent Form</h3><div style=""text-align:left;width:700px;""><p style = ""font-size:16px;"">In this study, you will be asked to read a set of instructions that describe a particular scenario, and you will then be asked to perform a simple task relating to that scenario. There will also be comprehension and attention checks. Participants who do not answer these checks correctly cannot be approved. In order to get credit for this study, you must read all the questions fully and answer honestly. You may only complete this study once. If you complete this study multiple times, you will be rejected.</p><p style = ""font-size:16px;"">This study is part of a MIT scientific research project. Your decision to complete this study is voluntary. There is no way for us to identify you. The only information we will have, in addition to your responses, is the time at which you completed the survey. The results of the research may be presented at scientific meetings or published in scientific journals. Pressing the ""Y"" key indicates that you are at least 18 years of age, and agree to complete this study voluntarily. Press the ""Y"" key to confirm your agreement and continue.</p></div>",,,,
31204,"{""instructions1"":""a park""}",survey-text,4,41694,0.0-4.0,1,1,2024-07-22 20:19:40,c42334ae11bd6e373fa9fec6f52302a2,174.26.31.217,"Mozilla/5.0 (Windows NT 10.0; Win64; x64) AppleWebKit/537.36 (KHTML, like Gecko) Chrome/126.0.0.0 Safari/537.36",WebKit,Chrome,126.0.0.0,Windows,10.0,https://app.prolific.com/,"en-US,en;q=0.9",nugbygg0z,5decaac46e09cf3792805023,,,,,,,instructions,,,
29042,"{""instructions2"":""Yes""}",survey-text,5,70740,0.0-5.0,1,1,2024-07-22 20:19:40,c42334ae11bd6e373fa9fec6f52302a2,174.26.31.217,"Mozilla/5.0 (Windows NT 10.0; Win64; x64) AppleWebKit/537.36 (KHTML, like Gecko) Chrome/126.0.0.0 Safari/537.36",WebKit,Chrome,126.0.0.0,Windows,10.0,https://app.prolific.com/,"en-US,en;q=0.9",nugbygg0z,5decaac46e09cf3792805023,,,,,,,instructions,,,
63620,"{""map_attention"":""Maps showing a small city, park, and destinations"",""squares_attention"":""Two terrains (grass and sidewalk) and three destinations (urgent care, bus stop, coffee shop)"",""answer_attention"":""Based on your own best judgment based on the map that you see, as well as your <i>own</i> common sense intuitions about towns and these kinds of destinations in general.""}",survey-multi-choice,6,134362,0.0-6.0,1,1,2024-07-22 20:19:40,c42334ae11bd6e373fa9fec6f52302a2,174.26.31.217,"Mozilla/5.0 (Windows NT 10.0; Win64; x64) AppleWebKit/537.36 (KHTML, like Gecko) Chrome/126.0.0.0 Safari/537.36",WebKit,Chrome,126.0.0.0,Windows,10.0,https://app.prolific.com/,"en-US,en;q=0.9",nugbygg0z,5decaac46e09cf3792805023,,,,,,,,"[0,1,2]",,
6162,50,html-slider-response,7,140526,0.0-7.0,1,1,2024-07-22 20:19:40,c42334ae11bd6e373fa9fec6f52302a2,174.26.31.217,"Mozilla/5.0 (Windows NT 10.0; Win64; x64) AppleWebKit/537.36 (KHTML, like Gecko) Chrome/126.0.0.0 Safari/537.36",WebKit,Chrome,126.0.0.0,Windows,10.0,https://app.prolific.com/,"en-US,en;q=0.9",nugbygg0z,5decaac46e09cf3792805023,,,,,,<div style='display:flex; justify-content:center; align-items:center;'><img src='img/map1_hospital_grass_wandering.png' style='width:600px; height:auto;' /></div>,image_trial,,50,img/map1_hospital_grass_wandering.png
5736,47,html-slider-response,8,146263,0.0-8.0,1,1,2024-07-22 20:19:40,c42334ae11bd6e373fa9fec6f52302a2,174.26.31.217,"Mozilla/5.0 (Windows NT 10.0; Win64; x64) AppleWebKit/537.36 (KHTML, like Gecko) Chrome/126.0.0.0 Safari/537.36",WebKit,Chrome,126.0.0.0,Windows,10.0,https://app.prolific.com/,"en-US,en;q=0.9",nugbygg0z,5decaac46e09cf3792805023,,,,,,<div style='display:flex; justify-content:center; align-items:center;'><img src='img/map2_bus_grass_wandering.png' style='width:600px; height:auto;' /></div>,image_trial,,50,img/map2_bus_grass_wandering.png
4746,100,html-slider-response,9,151011,0.0-9.0,1,1,2024-07-22 20:19:40,c42334ae11bd6e373fa9fec6f52302a2,174.26.31.217,"Mozilla/5.0 (Windows NT 10.0; Win64; x64) AppleWebKit/537.36 (KHTML, like Gecko) Chrome/126.0.0.0 Safari/537.36",WebKit,Chrome,126.0.0.0,Windows,10.0,https://app.prolific.com/,"en-US,en;q=0.9",nugbygg0z,5decaac46e09cf3792805023,,,,,,<div style='display:flex; justify-content:center; align-items:center;'><img src='img/map2_hospital_sidewalk_shortest.png' style='width:600px; height:auto;' /></div>,image_trial,,50,img/map2_hospital_sidewalk_shortest.png
3951,35,html-slider-response,10,154964,0.0-10.0,1,1,2024-07-22 20:19:40,c42334ae11bd6e373fa9fec6f52302a2,174.26.31.217,"Mozilla/5.0 (Windows NT 10.0; Win64; x64) AppleWebKit/537.36 (KHTML, like Gecko) Chrome/126.0.0.0 Safari/537.36",WebKit,Chrome,126.0.0.0,Windows,10.0,https://app.prolific.com/,"en-US,en;q=0.9",nugbygg0z,5decaac46e09cf3792805023,,,,,,<div style='display:flex; justify-content:center; align-items:center;'><img src='img/map2_hospital_grass_wandering.png' style='width:600px; height:auto;' /></div>,image_trial,,50,img/map2_hospital_grass_wandering.png
6396,31,html-slider-response,11,161361,0.0-11.0,1,1,2024-07-22 20:19:40,c42334ae11bd6e373fa9fec6f52302a2,174.26.31.217,"Mozilla/5.0 (Windows NT 10.0; Win64; x64) AppleWebKit/537.36 (KHTML, like Gecko) Chrome/126.0.0.0 Safari/537.36",WebKit,Chrome,126.0.0.0,Windows,10.0,https://app.prolific.com/,"en-US,en;q=0.9",nugbygg0z,5decaac46e09cf3792805023,,,,,,<div style='display:flex; justify-content:center; align-items:center;'><img src='img/map3_coffee_grass_shortest.png' style='width:600px; height:auto;' /></div>,image_trial,,50,img/map3_coffee_grass_shortest.png
3598,100,html-slider-response,12,164960,0.0-12.0,1,1,2024-07-22 20:19:40,c42334ae11bd6e373fa9fec6f52302a2,174.26.31.217,"Mozilla/5.0 (Windows NT 10.0; Win64; x64) AppleWebKit/537.36 (KHTML, like Gecko) Chrome/126.0.0.0 Safari/537.36",WebKit,Chrome,126.0.0.0,Windows,10.0,https://app.prolific.com/,"en-US,en;q=0.9",nugbygg0z,5decaac46e09cf3792805023,,,,,,<div style='display:flex; justify-content:center; align-items:center;'><img src='img/map1_coffee_sidewalk_shortest.png' style='width:600px; height:auto;' /></div>,image_trial,,50,img/map1_coffee_sidewalk_shortest.png
5046,100,html-slider-response,13,170008,0.0-13.0,1,1,2024-07-22 20:19:40,c42334ae11bd6e373fa9fec6f52302a2,174.26.31.217,"Mozilla/5.0 (Windows NT 10.0; Win64; x64) AppleWebKit/537.36 (KHTML, like Gecko) Chrome/126.0.0.0 Safari/537.36",WebKit,Chrome,126.0.0.0,Windows,10.0,https://app.prolific.com/,"en-US,en;q=0.9",nugbygg0z,5decaac46e09cf3792805023,,,,,,<div style='display:flex; justify-content:center; align-items:center;'><img src='img/map3_coffee_sidewalk_shortest.png' style='width:600px; height:auto;' /></div>,image_trial,,50,img/map3_coffee_sidewalk_shortest.png
4085,21,html-slider-response,14,174095,0.0-14.0,1,1,2024-07-22 20:19:40,c42334ae11bd6e373fa9fec6f52302a2,174.26.31.217,"Mozilla/5.0 (Windows NT 10.0; Win64; x64) AppleWebKit/537.36 (KHTML, like Gecko) Chrome/126.0.0.0 Safari/537.36",WebKit,Chrome,126.0.0.0,Windows,10.0,https://app.prolific.com/,"en-US,en;q=0.9",nugbygg0z,5decaac46e09cf3792805023,,,,,,<div style='display:flex; justify-content:center; align-items:center;'><img src='img/map1_bus_grass_shortest.png' style='width:600px; height:auto;' /></div>,image_trial,,50,img/map1_bus_grass_shortest.png
4446,43,html-slider-response,15,178543,0.0-15.0,1,1,2024-07-22 20:19:40,c42334ae11bd6e373fa9fec6f52302a2,174.26.31.217,"Mozilla/5.0 (Windows NT 10.0; Win64; x64) AppleWebKit/537.36 (KHTML, like Gecko) Chrome/126.0.0.0 Safari/537.36",WebKit,Chrome,126.0.0.0,Windows,10.0,https://app.prolific.com/,"en-US,en;q=0.9",nugbygg0z,5decaac46e09cf3792805023,,,,,,<div style='display:flex; justify-content:center; align-items:center;'><img src='img/map3_hospital_grass_wandering.png' style='width:600px; height:auto;' /></div>,image_trial,,50,img/map3_hospital_grass_wandering.png
5654,100,html-slider-response,16,184198,0.0-16.0,1,1,2024-07-22 20:19:40,c42334ae11bd6e373fa9fec6f52302a2,174.26.31.217,"Mozilla/5.0 (Windows NT 10.0; Win64; x64) AppleWebKit/537.36 (KHTML, like Gecko) Chrome/126.0.0.0 Safari/537.36",WebKit,Chrome,126.0.0.0,Windows,10.0,https://app.prolific.com/,"en-US,en;q=0.9",nugbygg0z,5decaac46e09cf3792805023,,,,,,<div style='display:flex; justify-content:center; align-items:center;'><img src='img/map3_hospital_sidewalk_shortest.png' style='width:600px; height:auto;' /></div>,image_trial,,50,img/map3_hospital_sidewalk_shortest.png
3185,35,html-slider-response,17,187385,0.0-17.0,1,1,2024-07-22 20:19:40,c42334ae11bd6e373fa9fec6f52302a2,174.26.31.217,"Mozilla/5.0 (Windows NT 10.0; Win64; x64) AppleWebKit/537.36 (KHTML, like Gecko) Chrome/126.0.0.0 Safari/537.36",WebKit,Chrome,126.0.0.0,Windows,10.0,https://app.prolific.com/,"en-US,en;q=0.9",nugbygg0z,5decaac46e09cf3792805023,,,,,,<div style='display:flex; justify-content:center; align-items:center;'><img src='img/map2_coffee_grass_wandering.png' style='width:600px; height:auto;' /></div>,image_trial,,50,img/map2_coffee_grass_wandering.png
2834,28,html-slider-response,18,190220,0.0-18.0,1,1,2024-07-22 20:19:40,c42334ae11bd6e373fa9fec6f52302a2,174.26.31.217,"Mozilla/5.0 (Windows NT 10.0; Win64; x64) AppleWebKit/537.36 (KHTML, like Gecko) Chrome/126.0.0.0 Safari/537.36",WebKit,Chrome,126.0.0.0,Windows,10.0,https://app.prolific.com/,"en-US,en;q=0.9",nugbygg0z,5decaac46e09cf3792805023,,,,,,<div style='display:flex; justify-content:center; align-items:center;'><img src='img/map1_hospital_grass_shortest.png' style='width:600px; height:auto;' /></div>,image_trial,,50,img/map1_hospital_grass_shortest.png
3891,27,html-slider-response,19,194112,0.0-19.0,1,1,2024-07-22 20:19:40,c42334ae11bd6e373fa9fec6f52302a2,174.26.31.217,"Mozilla/5.0 (Windows NT 10.0; Win64; x64) AppleWebKit/537.36 (KHTML, like Gecko) Chrome/126.0.0.0 Safari/537.36",WebKit,Chrome,126.0.0.0,Windows,10.0,https://app.prolific.com/,"en-US,en;q=0.9",nugbygg0z,5decaac46e09cf3792805023,,,,,,<div style='display:flex; justify-content:center; align-items:center;'><img src='img/map1_bus_grass_wandering.png' style='width:600px; height:auto;' /></div>,image_trial,,50,img/map1_bus_grass_wandering.png
2473,22,html-slider-response,20,196587,0.0-20.0,1,1,2024-07-22 20:19:40,c42334ae11bd6e373fa9fec6f52302a2,174.26.31.217,"Mozilla/5.0 (Windows NT 10.0; Win64; x64) AppleWebKit/537.36 (KHTML, like Gecko) Chrome/126.0.0.0 Safari/537.36",WebKit,Chrome,126.0.0.0,Windows,10.0,https://app.prolific.com/,"en-US,en;q=0.9",nugbygg0z,5decaac46e09cf3792805023,,,,,,<div style='display:flex; justify-content:center; align-items:center;'><img src='img/map1_coffee_grass_wandering.png' style='width:600px; height:auto;' /></div>,image_trial,,50,img/map1_coffee_grass_wandering.png
2766,12,html-slider-response,21,199354,0.0-21.0,1,1,2024-07-22 20:19:40,c42334ae11bd6e373fa9fec6f52302a2,174.26.31.217,"Mozilla/5.0 (Windows NT 10.0; Win64; x64) AppleWebKit/537.36 (KHTML, like Gecko) Chrome/126.0.0.0 Safari/537.36",WebKit,Chrome,126.0.0.0,Windows,10.0,https://app.prolific.com/,"en-US,en;q=0.9",nugbygg0z,5decaac46e09cf3792805023,,,,,,<div style='display:flex; justify-content:center; align-items:center;'><img src='img/map2_coffee_grass_shortest.png' style='width:600px; height:auto;' /></div>,image_trial,,50,img/map2_coffee_grass_shortest.png
2466,24,html-slider-response,22,201822,0.0-22.0,1,1,2024-07-22 20:19:40,c42334ae11bd6e373fa9fec6f52302a2,174.26.31.217,"Mozilla/5.0 (Windows NT 10.0; Win64; x64) AppleWebKit/537.36 (KHTML, like Gecko) Chrome/126.0.0.0 Safari/537.36",WebKit,Chrome,126.0.0.0,Windows,10.0,https://app.prolific.com/,"en-US,en;q=0.9",nugbygg0z,5decaac46e09cf3792805023,,,,,,<div style='display:flex; justify-content:center; align-items:center;'><img src='img/map3_coffee_grass_wandering.png' style='width:600px; height:auto;' /></div>,image_trial,,50,img/map3_coffee_grass_wandering.png
2878,15,html-slider-response,23,204702,0.0-23.0,1,1,2024-07-22 20:19:40,c42334ae11bd6e373fa9fec6f52302a2,174.26.31.217,"Mozilla/5.0 (Windows NT 10.0; Win64; x64) AppleWebKit/537.36 (KHTML, like Gecko) Chrome/126.0.0.0 Safari/537.36",WebKit,Chrome,126.0.0.0,Windows,10.0,https://app.prolific.com/,"en-US,en;q=0.9",nugbygg0z,5decaac46e09cf3792805023,,,,,,<div style='display:flex; justify-content:center; align-items:center;'><img src='img/map1_coffee_grass_shortest.png' style='width:600px; height:auto;' /></div>,image_trial,,50,img/map1_coffee_grass_shortest.png
6193,100,html-slider-response,24,210897,0.0-24.0,1,1,2024-07-22 20:19:40,c42334ae11bd6e373fa9fec6f52302a2,174.26.31.217,"Mozilla/5.0 (Windows NT 10.0; Win64; x64) AppleWebKit/537.36 (KHTML, like Gecko) Chrome/126.0.0.0 Safari/537.36",WebKit,Chrome,126.0.0.0,Windows,10.0,https://app.prolific.com/,"en-US,en;q=0.9",nugbygg0z,5decaac46e09cf3792805023,,,,,,<div style='display:flex; justify-content:center; align-items:center;'><img src='img/map2_bus_sidewalk_shortest.png' style='width:600px; height:auto;' /></div>,image_trial,,50,img/map2_bus_sidewalk_shortest.png
45852,35,html-slider-response,25,256751,0.0-25.0,1,1,2024-07-22 20:19:40,c42334ae11bd6e373fa9fec6f52302a2,174.26.31.217,"Mozilla/5.0 (Windows NT 10.0; Win64; x64) AppleWebKit/537.36 (KHTML, like Gecko) Chrome/126.0.0.0 Safari/537.36",WebKit,Chrome,126.0.0.0,Windows,10.0,https://app.prolific.com/,"en-US,en;q=0.9",nugbygg0z,5decaac46e09cf3792805023,,,,,,<div style='display:flex; justify-content:center; align-items:center;'><img src='img/map3_bus_grass_wandering.png' style='width:600px; height:auto;' /></div>,image_trial,,50,img/map3_bus_grass_wandering.png
10055,19,html-slider-response,26,266808,0.0-26.0,1,1,2024-07-22 20:19:40,c42334ae11bd6e373fa9fec6f52302a2,174.26.31.217,"Mozilla/5.0 (Windows NT 10.0; Win64; x64) AppleWebKit/537.36 (KHTML, like Gecko) Chrome/126.0.0.0 Safari/537.36",WebKit,Chrome,126.0.0.0,Windows,10.0,https://app.prolific.com/,"en-US,en;q=0.9",nugbygg0z,5decaac46e09cf3792805023,,,,,,<div style='display:flex; justify-content:center; align-items:center;'><img src='img/map2_hospital_grass_shortest.png' style='width:600px; height:auto;' /></div>,image_trial,,50,img/map2_hospital_grass_shortest.png
11422,100,html-slider-response,27,278231,0.0-27.0,1,1,2024-07-22 20:19:40,c42334ae11bd6e373fa9fec6f52302a2,174.26.31.217,"Mozilla/5.0 (Windows NT 10.0; Win64; x64) AppleWebKit/537.36 (KHTML, like Gecko) Chrome/126.0.0.0 Safari/537.36",WebKit,Chrome,126.0.0.0,Windows,10.0,https://app.prolific.com/,"en-US,en;q=0.9",nugbygg0z,5decaac46e09cf3792805023,,,,,,<div style='display:flex; justify-content:center; align-items:center;'><img src='img/map2_coffee_sidewalk_shortest.png' style='width:600px; height:auto;' /></div>,image_trial,,50,img/map2_coffee_sidewalk_shortest.png
5601,98,html-slider-response,28,283834,0.0-28.0,1,1,2024-07-22 20:19:40,c42334ae11bd6e373fa9fec6f52302a2,174.26.31.217,"Mozilla/5.0 (Windows NT 10.0; Win64; x64) AppleWebKit/537.36 (KHTML, like Gecko) Chrome/126.0.0.0 Safari/537.36",WebKit,Chrome,126.0.0.0,Windows,10.0,https://app.prolific.com/,"en-US,en;q=0.9",nugbygg0z,5decaac46e09cf3792805023,,,,,,<div style='display:flex; justify-content:center; align-items:center;'><img src='img/map3_bus_sidewalk_shortest.png' style='width:600px; height:auto;' /></div>,image_trial,,50,img/map3_bus_sidewalk_shortest.png
3620,100,html-slider-response,29,287455,0.0-29.0,1,1,2024-07-22 20:19:40,c42334ae11bd6e373fa9fec6f52302a2,174.26.31.217,"Mozilla/5.0 (Windows NT 10.0; Win64; x64) AppleWebKit/537.36 (KHTML, like Gecko) Chrome/126.0.0.0 Safari/537.36",WebKit,Chrome,126.0.0.0,Windows,10.0,https://app.prolific.com/,"en-US,en;q=0.9",nugbygg0z,5decaac46e09cf3792805023,,,,,,<div style='display:flex; justify-content:center; align-items:center;'><img src='img/map1_bus_sidewalk_shortest.png' style='width:600px; height:auto;' /></div>,image_trial,,50,img/map1_bus_sidewalk_shortest.png
2744,35,html-slider-response,30,290200,0.0-30.0,1,1,2024-07-22 20:19:40,c42334ae11bd6e373fa9fec6f52302a2,174.26.31.217,"Mozilla/5.0 (Windows NT 10.0; Win64; x64) AppleWebKit/537.36 (KHTML, like Gecko) Chrome/126.0.0.0 Safari/537.36",WebKit,Chrome,126.0.0.0,Windows,10.0,https://app.prolific.com/,"en-US,en;q=0.9",nugbygg0z,5decaac46e09cf3792805023,,,,,,<div style='display:flex; justify-content:center; align-items:center;'><img src='img/map3_hospital_grass_shortest.png' style='width:600px; height:auto;' /></div>,image_trial,,50,img/map3_hospital_grass_shortest.png
2953,100,html-slider-response,31,293155,0.0-31.0,1,1,2024-07-22 20:19:40,c42334ae11bd6e373fa9fec6f52302a2,174.26.31.217,"Mozilla/5.0 (Windows NT 10.0; Win64; x64) AppleWebKit/537.36 (KHTML, like Gecko) Chrome/126.0.0.0 Safari/537.36",WebKit,Chrome,126.0.0.0,Windows,10.0,https://app.prolific.com/,"en-US,en;q=0.9",nugbygg0z,5decaac46e09cf3792805023,,,,,,<div style='display:flex; justify-content:center; align-items:center;'><img src='img/map1_hospital_sidewalk_shortest.png' style='width:600px; height:auto;' /></div>,image_trial,,50,img/map1_hospital_sidewalk_shortest.png
2819,16,html-slider-response,32,295976,0.0-32.0,1,1,2024-07-22 20:19:40,c42334ae11bd6e373fa9fec6f52302a2,174.26.31.217,"Mozilla/5.0 (Windows NT 10.0; Win64; x64) AppleWebKit/537.36 (KHTML, like Gecko) Chrome/126.0.0.0 Safari/537.36",WebKit,Chrome,126.0.0.0,Windows,10.0,https://app.prolific.com/,"en-US,en;q=0.9",nugbygg0z,5decaac46e09cf3792805023,,,,,,<div style='display:flex; justify-content:center; align-items:center;'><img src='img/map3_bus_grass_shortest.png' style='width:600px; height:auto;' /></div>,image_trial,,50,img/map3_bus_grass_shortest.png
3163,14,html-slider-response,33,299140,0.0-33.0,1,1,2024-07-22 20:19:40,c42334ae11bd6e373fa9fec6f52302a2,174.26.31.217,"Mozilla/5.0 (Windows NT 10.0; Win64; x64) AppleWebKit/537.36 (KHTML, like Gecko) Chrome/126.0.0.0 Safari/537.36",WebKit,Chrome,126.0.0.0,Windows,10.0,https://app.prolific.com/,"en-US,en;q=0.9",nugbygg0z,5decaac46e09cf3792805023,,,,,,<div style='display:flex; justify-content:center; align-items:center;'><img src='img/map2_bus_grass_shortest.png' style='width:600px; height:auto;' /></div>,image_trial,,50,img/map2_bus_grass_shortest.png
167778,"[{""name"":""understand"",""value"":""yes""},{""name"":""problems"",""value"":""No.""},{""name"":""age"",""value"":""29""},{""name"":""gender"",""value"":""male""},{""name"":""comments"",""value"":""No comment.""}]",survey-html-form,34,466919,0.0-34.0,1,1,2024-07-22 20:19:40,c42334ae11bd6e373fa9fec6f52302a2,174.26.31.217,"Mozilla/5.0 (Windows NT 10.0; Win64; x64) AppleWebKit/537.36 (KHTML, like Gecko) Chrome/126.0.0.0 Safari/537.36",WebKit,Chrome,126.0.0.0,Windows,10.0,https://app.prolific.com/,"en-US,en;q=0.9",nugbygg0z,5decaac46e09cf3792805023,,,,,,,debrief,,,
14431,"{""Q0"":""nugbygg0z""}",survey-text,35,481355,0.0-35.0,1,1,2024-07-22 20:19:40,c42334ae11bd6e373fa9fec6f52302a2,174.26.31.217,"Mozilla/5.0 (Windows NT 10.0; Win64; x64) AppleWebKit/537.36 (KHTML, like Gecko) Chrome/126.0.0.0 Safari/537.36",WebKit,Chrome,126.0.0.0,Windows,10.0,https://app.prolific.com/,"en-US,en;q=0.9",nugbygg0z,5decaac46e09cf3792805023,,,,,,,,,,
13272,"{""prolific_id"":""66986f8f7c869332de7e6067""}",survey-text,0,13279,0.0-0.0,11,1,2024-07-22 20:30:13,c42334ae11bd6e373fa9fec6f52302a2,35.148.24.130,"Mozilla/5.0 (X11; CrOS x86_64 14541.0.0) AppleWebKit/537.36 (KHTML, like Gecko) Chrome/126.0.0.0 Safari/537.36",WebKit,Chrome,126.0.0.0,ChromeOS,14541.0.0,https://app.prolific.com/,"en-US,en;q=0.9",ost7jmkj7,66986f8f7c869332de7e6067,,,,,,,,,,
,,preload,1,13850,0.0-1.0,11,1,2024-07-22 20:30:13,c42334ae11bd6e373fa9fec6f52302a2,35.148.24.130,"Mozilla/5.0 (X11; CrOS x86_64 14541.0.0) AppleWebKit/537.36 (KHTML, like Gecko) Chrome/126.0.0.0 Safari/537.36",WebKit,Chrome,126.0.0.0,ChromeOS,14541.0.0,https://app.prolific.com/,"en-US,en;q=0.9",ost7jmkj7,66986f8f7c869332de7e6067,true,false,[],[],[],,,,,
2762, ,html-keyboard-response,2,16614,0.0-2.0,11,1,2024-07-22 20:30:13,c42334ae11bd6e373fa9fec6f52302a2,35.148.24.130,"Mozilla/5.0 (X11; CrOS x86_64 14541.0.0) AppleWebKit/537.36 (KHTML, like Gecko) Chrome/126.0.0.0 Safari/537.36",WebKit,Chrome,126.0.0.0,ChromeOS,14541.0.0,https://app.prolific.com/,"en-US,en;q=0.9",ost7jmkj7,66986f8f7c869332de7e6067,,,,,,"<p style=""text-align:center;width:700px;""> Welcome to the experiment! This study takes most people around 10 minutes to complete. Please complete it in one sitting.</p>",,,,
2071,y,html-keyboard-response,3,18687,0.0-3.0,11,1,2024-07-22 20:30:13,c42334ae11bd6e373fa9fec6f52302a2,35.148.24.130,"Mozilla/5.0 (X11; CrOS x86_64 14541.0.0) AppleWebKit/537.36 (KHTML, like Gecko) Chrome/126.0.0.0 Safari/537.36",WebKit,Chrome,126.0.0.0,ChromeOS,14541.0.0,https://app.prolific.com/,"en-US,en;q=0.9",ost7jmkj7,66986f8f7c869332de7e6067,,,,,,"<p style = ""font-size:16px;"">MIT Computational Cognitive Science Lab</p><h4>Press the 'y' key to consent.</h4><div style = ""background-color:#f2f2f2;""><h3>Informed Consent Form</h3><div style=""text-align:left;width:700px;""><p style = ""font-size:16px;"">In this study, you will be asked to read a set of instructions that describe a particular scenario, and you will then be asked to perform a simple task relating to that scenario. There will also be comprehension and attention checks. Participants who do not answer these checks correctly cannot be approved. In order to get credit for this study, you must read all the questions fully and answer honestly. You may only complete this study once. If you complete this study multiple times, you will be rejected.</p><p style = ""font-size:16px;"">This study is part of a MIT scientific research project. Your decision to complete this study is voluntary. There is no way for us to identify you. The only information we will have, in addition to your responses, is the time at which you completed the survey. The results of the research may be presented at scientific meetings or published in scientific journals. Pressing the ""Y"" key indicates that you are at least 18 years of age, and agree to complete this study voluntarily. Press the ""Y"" key to confirm your agreement and continue.</p></div>",,,,
24466,"{""instructions1"":""a park and surrounding areas in a medium-sized town""}",survey-text,4,43174,0.0-4.0,11,1,2024-07-22 20:30:13,c42334ae11bd6e373fa9fec6f52302a2,35.148.24.130,"Mozilla/5.0 (X11; CrOS x86_64 14541.0.0) AppleWebKit/537.36 (KHTML, like Gecko) Chrome/126.0.0.0 Safari/537.36",WebKit,Chrome,126.0.0.0,ChromeOS,14541.0.0,https://app.prolific.com/,"en-US,en;q=0.9",ost7jmkj7,66986f8f7c869332de7e6067,,,,,,,instructions,,,
2441,"{""instructions2"":""yes""}",survey-text,5,45628,0.0-5.0,11,1,2024-07-22 20:30:13,c42334ae11bd6e373fa9fec6f52302a2,35.148.24.130,"Mozilla/5.0 (X11; CrOS x86_64 14541.0.0) AppleWebKit/537.36 (KHTML, like Gecko) Chrome/126.0.0.0 Safari/537.36",WebKit,Chrome,126.0.0.0,ChromeOS,14541.0.0,https://app.prolific.com/,"en-US,en;q=0.9",ost7jmkj7,66986f8f7c869332de7e6067,,,,,,,instructions,,,
25063,"{""map_attention"":""Maps showing a small city, park, and destinations"",""squares_attention"":""Two terrains (grass and sidewalk) and three destinations (urgent care, bus stop, coffee shop)"",""answer_attention"":""Based on your own best judgment based on the map that you see, as well as your <i>own</i> common sense intuitions about towns and these kinds of destinations in general.""}",survey-multi-choice,6,70698,0.0-6.0,11,1,2024-07-22 20:30:13,c42334ae11bd6e373fa9fec6f52302a2,35.148.24.130,"Mozilla/5.0 (X11; CrOS x86_64 14541.0.0) AppleWebKit/537.36 (KHTML, like Gecko) Chrome/126.0.0.0 Safari/537.36",WebKit,Chrome,126.0.0.0,ChromeOS,14541.0.0,https://app.prolific.com/,"en-US,en;q=0.9",ost7jmkj7,66986f8f7c869332de7e6067,,,,,,,,"[0,1,2]",,
12102,0,html-slider-response,7,82814,0.0-7.0,11,1,2024-07-22 20:30:13,c42334ae11bd6e373fa9fec6f52302a2,35.148.24.130,"Mozilla/5.0 (X11; CrOS x86_64 14541.0.0) AppleWebKit/537.36 (KHTML, like Gecko) Chrome/126.0.0.0 Safari/537.36",WebKit,Chrome,126.0.0.0,ChromeOS,14541.0.0,https://app.prolific.com/,"en-US,en;q=0.9",ost7jmkj7,66986f8f7c869332de7e6067,,,,,,<div style='display:flex; justify-content:center; align-items:center;'><img src='img/map1_hospital_grass_wandering.png' style='width:600px; height:auto;' /></div>,image_trial,,50,img/map1_hospital_grass_wandering.png
4839,100,html-slider-response,8,87657,0.0-8.0,11,1,2024-07-22 20:30:13,c42334ae11bd6e373fa9fec6f52302a2,35.148.24.130,"Mozilla/5.0 (X11; CrOS x86_64 14541.0.0) AppleWebKit/537.36 (KHTML, like Gecko) Chrome/126.0.0.0 Safari/537.36",WebKit,Chrome,126.0.0.0,ChromeOS,14541.0.0,https://app.prolific.com/,"en-US,en;q=0.9",ost7jmkj7,66986f8f7c869332de7e6067,,,,,,<div style='display:flex; justify-content:center; align-items:center;'><img src='img/map3_bus_sidewalk_shortest.png' style='width:600px; height:auto;' /></div>,image_trial,,50,img/map3_bus_sidewalk_shortest.png
4739,0,html-slider-response,9,92402,0.0-9.0,11,1,2024-07-22 20:30:13,c42334ae11bd6e373fa9fec6f52302a2,35.148.24.130,"Mozilla/5.0 (X11; CrOS x86_64 14541.0.0) AppleWebKit/537.36 (KHTML, like Gecko) Chrome/126.0.0.0 Safari/537.36",WebKit,Chrome,126.0.0.0,ChromeOS,14541.0.0,https://app.prolific.com/,"en-US,en;q=0.9",ost7jmkj7,66986f8f7c869332de7e6067,,,,,,<div style='display:flex; justify-content:center; align-items:center;'><img src='img/map2_coffee_grass_wandering.png' style='width:600px; height:auto;' /></div>,image_trial,,50,img/map2_coffee_grass_wandering.png
6695,51,html-slider-response,10,99103,0.0-10.0,11,1,2024-07-22 20:30:13,c42334ae11bd6e373fa9fec6f52302a2,35.148.24.130,"Mozilla/5.0 (X11; CrOS x86_64 14541.0.0) AppleWebKit/537.36 (KHTML, like Gecko) Chrome/126.0.0.0 Safari/537.36",WebKit,Chrome,126.0.0.0,ChromeOS,14541.0.0,https://app.prolific.com/,"en-US,en;q=0.9",ost7jmkj7,66986f8f7c869332de7e6067,,,,,,<div style='display:flex; justify-content:center; align-items:center;'><img src='img/map3_coffee_grass_shortest.png' style='width:600px; height:auto;' /></div>,image_trial,,50,img/map3_coffee_grass_shortest.png
3883,0,html-slider-response,11,102990,0.0-11.0,11,1,2024-07-22 20:30:13,c42334ae11bd6e373fa9fec6f52302a2,35.148.24.130,"Mozilla/5.0 (X11; CrOS x86_64 14541.0.0) AppleWebKit/537.36 (KHTML, like Gecko) Chrome/126.0.0.0 Safari/537.36",WebKit,Chrome,126.0.0.0,ChromeOS,14541.0.0,https://app.prolific.com/,"en-US,en;q=0.9",ost7jmkj7,66986f8f7c869332de7e6067,,,,,,<div style='display:flex; justify-content:center; align-items:center;'><img src='img/map1_bus_grass_shortest.png' style='width:600px; height:auto;' /></div>,image_trial,,50,img/map1_bus_grass_shortest.png
7616,7,html-slider-response,12,110614,0.0-12.0,11,1,2024-07-22 20:30:13,c42334ae11bd6e373fa9fec6f52302a2,35.148.24.130,"Mozilla/5.0 (X11; CrOS x86_64 14541.0.0) AppleWebKit/537.36 (KHTML, like Gecko) Chrome/126.0.0.0 Safari/537.36",WebKit,Chrome,126.0.0.0,ChromeOS,14541.0.0,https://app.prolific.com/,"en-US,en;q=0.9",ost7jmkj7,66986f8f7c869332de7e6067,,,,,,<div style='display:flex; justify-content:center; align-items:center;'><img src='img/map2_bus_grass_shortest.png' style='width:600px; height:auto;' /></div>,image_trial,,50,img/map2_bus_grass_shortest.png
5762,8,html-slider-response,13,116382,0.0-13.0,11,1,2024-07-22 20:30:13,c42334ae11bd6e373fa9fec6f52302a2,35.148.24.130,"Mozilla/5.0 (X11; CrOS x86_64 14541.0.0) AppleWebKit/537.36 (KHTML, like Gecko) Chrome/126.0.0.0 Safari/537.36",WebKit,Chrome,126.0.0.0,ChromeOS,14541.0.0,https://app.prolific.com/,"en-US,en;q=0.9",ost7jmkj7,66986f8f7c869332de7e6067,,,,,,<div style='display:flex; justify-content:center; align-items:center;'><img src='img/map2_hospital_grass_shortest.png' style='width:600px; height:auto;' /></div>,image_trial,,50,img/map2_hospital_grass_shortest.png
3946,100,html-slider-response,14,120333,0.0-14.0,11,1,2024-07-22 20:30:13,c42334ae11bd6e373fa9fec6f52302a2,35.148.24.130,"Mozilla/5.0 (X11; CrOS x86_64 14541.0.0) AppleWebKit/537.36 (KHTML, like Gecko) Chrome/126.0.0.0 Safari/537.36",WebKit,Chrome,126.0.0.0,ChromeOS,14541.0.0,https://app.prolific.com/,"en-US,en;q=0.9",ost7jmkj7,66986f8f7c869332de7e6067,,,,,,<div style='display:flex; justify-content:center; align-items:center;'><img src='img/map3_hospital_sidewalk_shortest.png' style='width:600px; height:auto;' /></div>,image_trial,,50,img/map3_hospital_sidewalk_shortest.png
5269,0,html-slider-response,15,125608,0.0-15.0,11,1,2024-07-22 20:30:13,c42334ae11bd6e373fa9fec6f52302a2,35.148.24.130,"Mozilla/5.0 (X11; CrOS x86_64 14541.0.0) AppleWebKit/537.36 (KHTML, like Gecko) Chrome/126.0.0.0 Safari/537.36",WebKit,Chrome,126.0.0.0,ChromeOS,14541.0.0,https://app.prolific.com/,"en-US,en;q=0.9",ost7jmkj7,66986f8f7c869332de7e6067,,,,,,<div style='display:flex; justify-content:center; align-items:center;'><img src='img/map3_hospital_grass_wandering.png' style='width:600px; height:auto;' /></div>,image_trial,,50,img/map3_hospital_grass_wandering.png
5388,0,html-slider-response,16,131000,0.0-16.0,11,1,2024-07-22 20:30:13,c42334ae11bd6e373fa9fec6f52302a2,35.148.24.130,"Mozilla/5.0 (X11; CrOS x86_64 14541.0.0) AppleWebKit/537.36 (KHTML, like Gecko) Chrome/126.0.0.0 Safari/537.36",WebKit,Chrome,126.0.0.0,ChromeOS,14541.0.0,https://app.prolific.com/,"en-US,en;q=0.9",ost7jmkj7,66986f8f7c869332de7e6067,,,,,,<div style='display:flex; justify-content:center; align-items:center;'><img src='img/map3_bus_grass_wandering.png' style='width:600px; height:auto;' /></div>,image_trial,,50,img/map3_bus_grass_wandering.png
5477,100,html-slider-response,17,136483,0.0-17.0,11,1,2024-07-22 20:30:13,c42334ae11bd6e373fa9fec6f52302a2,35.148.24.130,"Mozilla/5.0 (X11; CrOS x86_64 14541.0.0) AppleWebKit/537.36 (KHTML, like Gecko) Chrome/126.0.0.0 Safari/537.36",WebKit,Chrome,126.0.0.0,ChromeOS,14541.0.0,https://app.prolific.com/,"en-US,en;q=0.9",ost7jmkj7,66986f8f7c869332de7e6067,,,,,,<div style='display:flex; justify-content:center; align-items:center;'><img src='img/map1_hospital_sidewalk_shortest.png' style='width:600px; height:auto;' /></div>,image_trial,,50,img/map1_hospital_sidewalk_shortest.png
3970,0,html-slider-response,18,140458,0.0-18.0,11,1,2024-07-22 20:30:13,c42334ae11bd6e373fa9fec6f52302a2,35.148.24.130,"Mozilla/5.0 (X11; CrOS x86_64 14541.0.0) AppleWebKit/537.36 (KHTML, like Gecko) Chrome/126.0.0.0 Safari/537.36",WebKit,Chrome,126.0.0.0,ChromeOS,14541.0.0,https://app.prolific.com/,"en-US,en;q=0.9",ost7jmkj7,66986f8f7c869332de7e6067,,,,,,<div style='display:flex; justify-content:center; align-items:center;'><img src='img/map3_coffee_grass_wandering.png' style='width:600px; height:auto;' /></div>,image_trial,,50,img/map3_coffee_grass_wandering.png
5947,0,html-slider-response,19,146410,0.0-19.0,11,1,2024-07-22 20:30:13,c42334ae11bd6e373fa9fec6f52302a2,35.148.24.130,"Mozilla/5.0 (X11; CrOS x86_64 14541.0.0) AppleWebKit/537.36 (KHTML, like Gecko) Chrome/126.0.0.0 Safari/537.36",WebKit,Chrome,126.0.0.0,ChromeOS,14541.0.0,https://app.prolific.com/,"en-US,en;q=0.9",ost7jmkj7,66986f8f7c869332de7e6067,,,,,,<div style='display:flex; justify-content:center; align-items:center;'><img src='img/map3_bus_grass_shortest.png' style='width:600px; height:auto;' /></div>,image_trial,,50,img/map3_bus_grass_shortest.png
4411,0,html-slider-response,20,150827,0.0-20.0,11,1,2024-07-22 20:30:13,c42334ae11bd6e373fa9fec6f52302a2,35.148.24.130,"Mozilla/5.0 (X11; CrOS x86_64 14541.0.0) AppleWebKit/537.36 (KHTML, like Gecko) Chrome/126.0.0.0 Safari/537.36",WebKit,Chrome,126.0.0.0,ChromeOS,14541.0.0,https://app.prolific.com/,"en-US,en;q=0.9",ost7jmkj7,66986f8f7c869332de7e6067,,,,,,<div style='display:flex; justify-content:center; align-items:center;'><img src='img/map1_bus_grass_wandering.png' style='width:600px; height:auto;' /></div>,image_trial,,50,img/map1_bus_grass_wandering.png
5067,0,html-slider-response,21,155898,0.0-21.0,11,1,2024-07-22 20:30:13,c42334ae11bd6e373fa9fec6f52302a2,35.148.24.130,"Mozilla/5.0 (X11; CrOS x86_64 14541.0.0) AppleWebKit/537.36 (KHTML, like Gecko) Chrome/126.0.0.0 Safari/537.36",WebKit,Chrome,126.0.0.0,ChromeOS,14541.0.0,https://app.prolific.com/,"en-US,en;q=0.9",ost7jmkj7,66986f8f7c869332de7e6067,,,,,,<div style='display:flex; justify-content:center; align-items:center;'><img src='img/map1_coffee_grass_wandering.png' style='width:600px; height:auto;' /></div>,image_trial,,50,img/map1_coffee_grass_wandering.png
3637,0,html-slider-response,22,159540,0.0-22.0,11,1,2024-07-22 20:30:13,c42334ae11bd6e373fa9fec6f52302a2,35.148.24.130,"Mozilla/5.0 (X11; CrOS x86_64 14541.0.0) AppleWebKit/537.36 (KHTML, like Gecko) Chrome/126.0.0.0 Safari/537.36",WebKit,Chrome,126.0.0.0,ChromeOS,14541.0.0,https://app.prolific.com/,"en-US,en;q=0.9",ost7jmkj7,66986f8f7c869332de7e6067,,,,,,<div style='display:flex; justify-content:center; align-items:center;'><img src='img/map1_coffee_grass_shortest.png' style='width:600px; height:auto;' /></div>,image_trial,,50,img/map1_coffee_grass_shortest.png
3621,100,html-slider-response,23,163171,0.0-23.0,11,1,2024-07-22 20:30:13,c42334ae11bd6e373fa9fec6f52302a2,35.148.24.130,"Mozilla/5.0 (X11; CrOS x86_64 14541.0.0) AppleWebKit/537.36 (KHTML, like Gecko) Chrome/126.0.0.0 Safari/537.36",WebKit,Chrome,126.0.0.0,ChromeOS,14541.0.0,https://app.prolific.com/,"en-US,en;q=0.9",ost7jmkj7,66986f8f7c869332de7e6067,,,,,,<div style='display:flex; justify-content:center; align-items:center;'><img src='img/map2_coffee_sidewalk_shortest.png' style='width:600px; height:auto;' /></div>,image_trial,,50,img/map2_coffee_sidewalk_shortest.png
3565,100,html-slider-response,24,166743,0.0-24.0,11,1,2024-07-22 20:30:13,c42334ae11bd6e373fa9fec6f52302a2,35.148.24.130,"Mozilla/5.0 (X11; CrOS x86_64 14541.0.0) AppleWebKit/537.36 (KHTML, like Gecko) Chrome/126.0.0.0 Safari/537.36",WebKit,Chrome,126.0.0.0,ChromeOS,14541.0.0,https://app.prolific.com/,"en-US,en;q=0.9",ost7jmkj7,66986f8f7c869332de7e6067,,,,,,<div style='display:flex; justify-content:center; align-items:center;'><img src='img/map3_coffee_sidewalk_shortest.png' style='width:600px; height:auto;' /></div>,image_trial,,50,img/map3_coffee_sidewalk_shortest.png
3815,100,html-slider-response,25,170563,0.0-25.0,11,1,2024-07-22 20:30:13,c42334ae11bd6e373fa9fec6f52302a2,35.148.24.130,"Mozilla/5.0 (X11; CrOS x86_64 14541.0.0) AppleWebKit/537.36 (KHTML, like Gecko) Chrome/126.0.0.0 Safari/537.36",WebKit,Chrome,126.0.0.0,ChromeOS,14541.0.0,https://app.prolific.com/,"en-US,en;q=0.9",ost7jmkj7,66986f8f7c869332de7e6067,,,,,,<div style='display:flex; justify-content:center; align-items:center;'><img src='img/map1_bus_sidewalk_shortest.png' style='width:600px; height:auto;' /></div>,image_trial,,50,img/map1_bus_sidewalk_shortest.png
3436,100,html-slider-response,26,174007,0.0-26.0,11,1,2024-07-22 20:30:13,c42334ae11bd6e373fa9fec6f52302a2,35.148.24.130,"Mozilla/5.0 (X11; CrOS x86_64 14541.0.0) AppleWebKit/537.36 (KHTML, like Gecko) Chrome/126.0.0.0 Safari/537.36",WebKit,Chrome,126.0.0.0,ChromeOS,14541.0.0,https://app.prolific.com/,"en-US,en;q=0.9",ost7jmkj7,66986f8f7c869332de7e6067,,,,,,<div style='display:flex; justify-content:center; align-items:center;'><img src='img/map1_coffee_sidewalk_shortest.png' style='width:600px; height:auto;' /></div>,image_trial,,50,img/map1_coffee_sidewalk_shortest.png
3809,0,html-slider-response,27,177825,0.0-27.0,11,1,2024-07-22 20:30:13,c42334ae11bd6e373fa9fec6f52302a2,35.148.24.130,"Mozilla/5.0 (X11; CrOS x86_64 14541.0.0) AppleWebKit/537.36 (KHTML, like Gecko) Chrome/126.0.0.0 Safari/537.36",WebKit,Chrome,126.0.0.0,ChromeOS,14541.0.0,https://app.prolific.com/,"en-US,en;q=0.9",ost7jmkj7,66986f8f7c869332de7e6067,,,,,,<div style='display:flex; justify-content:center; align-items:center;'><img src='img/map2_hospital_grass_wandering.png' style='width:600px; height:auto;' /></div>,image_trial,,50,img/map2_hospital_grass_wandering.png
3718,0,html-slider-response,28,181550,0.0-28.0,11,1,2024-07-22 20:30:13,c42334ae11bd6e373fa9fec6f52302a2,35.148.24.130,"Mozilla/5.0 (X11; CrOS x86_64 14541.0.0) AppleWebKit/537.36 (KHTML, like Gecko) Chrome/126.0.0.0 Safari/537.36",WebKit,Chrome,126.0.0.0,ChromeOS,14541.0.0,https://app.prolific.com/,"en-US,en;q=0.9",ost7jmkj7,66986f8f7c869332de7e6067,,,,,,<div style='display:flex; justify-content:center; align-items:center;'><img src='img/map2_coffee_grass_shortest.png' style='width:600px; height:auto;' /></div>,image_trial,,50,img/map2_coffee_grass_shortest.png
3389,100,html-slider-response,29,184947,0.0-29.0,11,1,2024-07-22 20:30:13,c42334ae11bd6e373fa9fec6f52302a2,35.148.24.130,"Mozilla/5.0 (X11; CrOS x86_64 14541.0.0) AppleWebKit/537.36 (KHTML, like Gecko) Chrome/126.0.0.0 Safari/537.36",WebKit,Chrome,126.0.0.0,ChromeOS,14541.0.0,https://app.prolific.com/,"en-US,en;q=0.9",ost7jmkj7,66986f8f7c869332de7e6067,,,,,,<div style='display:flex; justify-content:center; align-items:center;'><img src='img/map2_hospital_sidewalk_shortest.png' style='width:600px; height:auto;' /></div>,image_trial,,50,img/map2_hospital_sidewalk_shortest.png
4330,15,html-slider-response,30,189283,0.0-30.0,11,1,2024-07-22 20:30:13,c42334ae11bd6e373fa9fec6f52302a2,35.148.24.130,"Mozilla/5.0 (X11; CrOS x86_64 14541.0.0) AppleWebKit/537.36 (KHTML, like Gecko) Chrome/126.0.0.0 Safari/537.36",WebKit,Chrome,126.0.0.0,ChromeOS,14541.0.0,https://app.prolific.com/,"en-US,en;q=0.9",ost7jmkj7,66986f8f7c869332de7e6067,,,,,,<div style='display:flex; justify-content:center; align-items:center;'><img src='img/map3_hospital_grass_shortest.png' style='width:600px; height:auto;' /></div>,image_trial,,50,img/map3_hospital_grass_shortest.png
3520,100,html-slider-response,31,192809,0.0-31.0,11,1,2024-07-22 20:30:13,c42334ae11bd6e373fa9fec6f52302a2,35.148.24.130,"Mozilla/5.0 (X11; CrOS x86_64 14541.0.0) AppleWebKit/537.36 (KHTML, like Gecko) Chrome/126.0.0.0 Safari/537.36",WebKit,Chrome,126.0.0.0,ChromeOS,14541.0.0,https://app.prolific.com/,"en-US,en;q=0.9",ost7jmkj7,66986f8f7c869332de7e6067,,,,,,<div style='display:flex; justify-content:center; align-items:center;'><img src='img/map2_bus_sidewalk_shortest.png' style='width:600px; height:auto;' /></div>,image_trial,,50,img/map2_bus_sidewalk_shortest.png
8586,0,html-slider-response,32,201403,0.0-32.0,11,1,2024-07-22 20:30:13,c42334ae11bd6e373fa9fec6f52302a2,35.148.24.130,"Mozilla/5.0 (X11; CrOS x86_64 14541.0.0) AppleWebKit/537.36 (KHTML, like Gecko) Chrome/126.0.0.0 Safari/537.36",WebKit,Chrome,126.0.0.0,ChromeOS,14541.0.0,https://app.prolific.com/,"en-US,en;q=0.9",ost7jmkj7,66986f8f7c869332de7e6067,,,,,,<div style='display:flex; justify-content:center; align-items:center;'><img src='img/map2_bus_grass_wandering.png' style='width:600px; height:auto;' /></div>,image_trial,,50,img/map2_bus_grass_wandering.png
4306,33,html-slider-response,33,205717,0.0-33.0,11,1,2024-07-22 20:30:13,c42334ae11bd6e373fa9fec6f52302a2,35.148.24.130,"Mozilla/5.0 (X11; CrOS x86_64 14541.0.0) AppleWebKit/537.36 (KHTML, like Gecko) Chrome/126.0.0.0 Safari/537.36",WebKit,Chrome,126.0.0.0,ChromeOS,14541.0.0,https://app.prolific.com/,"en-US,en;q=0.9",ost7jmkj7,66986f8f7c869332de7e6067,,,,,,<div style='display:flex; justify-content:center; align-items:center;'><img src='img/map1_hospital_grass_shortest.png' style='width:600px; height:auto;' /></div>,image_trial,,50,img/map1_hospital_grass_shortest.png
13622,"[{""name"":""understand"",""value"":""yes""},{""name"":""problems"",""value"":""No""},{""name"":""age"",""value"":""23""},{""name"":""gender"",""value"":""female""},{""name"":""comments"",""value"":""no""}]",survey-html-form,34,219346,0.0-34.0,11,1,2024-07-22 20:30:13,c42334ae11bd6e373fa9fec6f52302a2,35.148.24.130,"Mozilla/5.0 (X11; CrOS x86_64 14541.0.0) AppleWebKit/537.36 (KHTML, like Gecko) Chrome/126.0.0.0 Safari/537.36",WebKit,Chrome,126.0.0.0,ChromeOS,14541.0.0,https://app.prolific.com/,"en-US,en;q=0.9",ost7jmkj7,66986f8f7c869332de7e6067,,,,,,,debrief,,,
10349,"{""Q0"":""ost7jmkj7""}",survey-text,35,229702,0.0-35.0,11,1,2024-07-22 20:30:13,c42334ae11bd6e373fa9fec6f52302a2,35.148.24.130,"Mozilla/5.0 (X11; CrOS x86_64 14541.0.0) AppleWebKit/537.36 (KHTML, like Gecko) Chrome/126.0.0.0 Safari/537.36",WebKit,Chrome,126.0.0.0,ChromeOS,14541.0.0,https://app.prolific.com/,"en-US,en;q=0.9",ost7jmkj7,66986f8f7c869332de7e6067,,,,,,,,,,
3915,"{""prolific_id"":""665bfb064aa592a13b14803c""}",survey-text,0,3919,0.0-0.0,10,1,2024-07-22 20:30:03,c42334ae11bd6e373fa9fec6f52302a2,71.68.35.187,"Mozilla/5.0 (Macintosh; Intel Mac OS X 10_15_7) AppleWebKit/537.36 (KHTML, like Gecko) Chrome/126.0.0.0 Safari/537.36",Macintosh,Chrome,126.0.0.0,OS X,10_15_7,https://app.prolific.com/,"en-US,en;q=0.9",7rho3nl0l,665bfb064aa592a13b14803c,,,,,,,,,,
,,preload,1,4331,0.0-1.0,10,1,2024-07-22 20:30:03,c42334ae11bd6e373fa9fec6f52302a2,71.68.35.187,"Mozilla/5.0 (Macintosh; Intel Mac OS X 10_15_7) AppleWebKit/537.36 (KHTML, like Gecko) Chrome/126.0.0.0 Safari/537.36",Macintosh,Chrome,126.0.0.0,OS X,10_15_7,https://app.prolific.com/,"en-US,en;q=0.9",7rho3nl0l,665bfb064aa592a13b14803c,true,false,[],[],[],,,,,
2342, ,html-keyboard-response,2,6673,0.0-2.0,10,1,2024-07-22 20:30:03,c42334ae11bd6e373fa9fec6f52302a2,71.68.35.187,"Mozilla/5.0 (Macintosh; Intel Mac OS X 10_15_7) AppleWebKit/537.36 (KHTML, like Gecko) Chrome/126.0.0.0 Safari/537.36",Macintosh,Chrome,126.0.0.0,OS X,10_15_7,https://app.prolific.com/,"en-US,en;q=0.9",7rho3nl0l,665bfb064aa592a13b14803c,,,,,,"<p style=""text-align:center;width:700px;""> Welcome to the experiment! This study takes most people around 10 minutes to complete. Please complete it in one sitting.</p>",,,,
4228,y,html-keyboard-response,3,10902,0.0-3.0,10,1,2024-07-22 20:30:03,c42334ae11bd6e373fa9fec6f52302a2,71.68.35.187,"Mozilla/5.0 (Macintosh; Intel Mac OS X 10_15_7) AppleWebKit/537.36 (KHTML, like Gecko) Chrome/126.0.0.0 Safari/537.36",Macintosh,Chrome,126.0.0.0,OS X,10_15_7,https://app.prolific.com/,"en-US,en;q=0.9",7rho3nl0l,665bfb064aa592a13b14803c,,,,,,"<p style = ""font-size:16px;"">MIT Computational Cognitive Science Lab</p><h4>Press the 'y' key to consent.</h4><div style = ""background-color:#f2f2f2;""><h3>Informed Consent Form</h3><div style=""text-align:left;width:700px;""><p style = ""font-size:16px;"">In this study, you will be asked to read a set of instructions that describe a particular scenario, and you will then be asked to perform a simple task relating to that scenario. There will also be comprehension and attention checks. Participants who do not answer these checks correctly cannot be approved. In order to get credit for this study, you must read all the questions fully and answer honestly. You may only complete this study once. If you complete this study multiple times, you will be rejected.</p><p style = ""font-size:16px;"">This study is part of a MIT scientific research project. Your decision to complete this study is voluntary. There is no way for us to identify you. The only information we will have, in addition to your responses, is the time at which you completed the survey. The results of the research may be presented at scientific meetings or published in scientific journals. Pressing the ""Y"" key indicates that you are at least 18 years of age, and agree to complete this study voluntarily. Press the ""Y"" key to confirm your agreement and continue.</p></div>",,,,
63456,"{""instructions1"":""3 common destinations and different terrains townspeople encounter when passing through that area. ""}",survey-text,4,74363,0.0-4.0,10,1,2024-07-22 20:30:03,c42334ae11bd6e373fa9fec6f52302a2,71.68.35.187,"Mozilla/5.0 (Macintosh; Intel Mac OS X 10_15_7) AppleWebKit/537.36 (KHTML, like Gecko) Chrome/126.0.0.0 Safari/537.36",Macintosh,Chrome,126.0.0.0,OS X,10_15_7,https://app.prolific.com/,"en-US,en;q=0.9",7rho3nl0l,665bfb064aa592a13b14803c,,,,,,,instructions,,,
22223,"{""instructions2"":""Yes""}",survey-text,5,96588,0.0-5.0,10,1,2024-07-22 20:30:03,c42334ae11bd6e373fa9fec6f52302a2,71.68.35.187,"Mozilla/5.0 (Macintosh; Intel Mac OS X 10_15_7) AppleWebKit/537.36 (KHTML, like Gecko) Chrome/126.0.0.0 Safari/537.36",Macintosh,Chrome,126.0.0.0,OS X,10_15_7,https://app.prolific.com/,"en-US,en;q=0.9",7rho3nl0l,665bfb064aa592a13b14803c,,,,,,,instructions,,,
38354,"{""map_attention"":""Maps showing a small city, park, and destinations"",""squares_attention"":""Two terrains (grass and sidewalk) and three destinations (urgent care, bus stop, coffee shop)"",""answer_attention"":""Based on your own best judgment based on the map that you see, as well as your <i>own</i> common sense intuitions about towns and these kinds of destinations in general.""}",survey-multi-choice,6,134944,0.0-6.0,10,1,2024-07-22 20:30:03,c42334ae11bd6e373fa9fec6f52302a2,71.68.35.187,"Mozilla/5.0 (Macintosh; Intel Mac OS X 10_15_7) AppleWebKit/537.36 (KHTML, like Gecko) Chrome/126.0.0.0 Safari/537.36",Macintosh,Chrome,126.0.0.0,OS X,10_15_7,https://app.prolific.com/,"en-US,en;q=0.9",7rho3nl0l,665bfb064aa592a13b14803c,,,,,,,,"[0,1,2]",,
12164,50,html-slider-response,7,147110,0.0-7.0,10,1,2024-07-22 20:30:03,c42334ae11bd6e373fa9fec6f52302a2,71.68.35.187,"Mozilla/5.0 (Macintosh; Intel Mac OS X 10_15_7) AppleWebKit/537.36 (KHTML, like Gecko) Chrome/126.0.0.0 Safari/537.36",Macintosh,Chrome,126.0.0.0,OS X,10_15_7,https://app.prolific.com/,"en-US,en;q=0.9",7rho3nl0l,665bfb064aa592a13b14803c,,,,,,<div style='display:flex; justify-content:center; align-items:center;'><img src='img/map2_coffee_grass_shortest.png' style='width:600px; height:auto;' /></div>,image_trial,,50,img/map2_coffee_grass_shortest.png
7134,51,html-slider-response,8,154245,0.0-8.0,10,1,2024-07-22 20:30:03,c42334ae11bd6e373fa9fec6f52302a2,71.68.35.187,"Mozilla/5.0 (Macintosh; Intel Mac OS X 10_15_7) AppleWebKit/537.36 (KHTML, like Gecko) Chrome/126.0.0.0 Safari/537.36",Macintosh,Chrome,126.0.0.0,OS X,10_15_7,https://app.prolific.com/,"en-US,en;q=0.9",7rho3nl0l,665bfb064aa592a13b14803c,,,,,,<div style='display:flex; justify-content:center; align-items:center;'><img src='img/map1_hospital_grass_shortest.png' style='width:600px; height:auto;' /></div>,image_trial,,50,img/map1_hospital_grass_shortest.png
4515,50,html-slider-response,9,158761,0.0-9.0,10,1,2024-07-22 20:30:03,c42334ae11bd6e373fa9fec6f52302a2,71.68.35.187,"Mozilla/5.0 (Macintosh; Intel Mac OS X 10_15_7) AppleWebKit/537.36 (KHTML, like Gecko) Chrome/126.0.0.0 Safari/537.36",Macintosh,Chrome,126.0.0.0,OS X,10_15_7,https://app.prolific.com/,"en-US,en;q=0.9",7rho3nl0l,665bfb064aa592a13b14803c,,,,,,<div style='display:flex; justify-content:center; align-items:center;'><img src='img/map2_bus_grass_shortest.png' style='width:600px; height:auto;' /></div>,image_trial,,50,img/map2_bus_grass_shortest.png
4942,51,html-slider-response,10,163704,0.0-10.0,10,1,2024-07-22 20:30:03,c42334ae11bd6e373fa9fec6f52302a2,71.68.35.187,"Mozilla/5.0 (Macintosh; Intel Mac OS X 10_15_7) AppleWebKit/537.36 (KHTML, like Gecko) Chrome/126.0.0.0 Safari/537.36",Macintosh,Chrome,126.0.0.0,OS X,10_15_7,https://app.prolific.com/,"en-US,en;q=0.9",7rho3nl0l,665bfb064aa592a13b14803c,,,,,,<div style='display:flex; justify-content:center; align-items:center;'><img src='img/map1_coffee_grass_shortest.png' style='width:600px; height:auto;' /></div>,image_trial,,50,img/map1_coffee_grass_shortest.png
5518,96,html-slider-response,11,169223,0.0-11.0,10,1,2024-07-22 20:30:03,c42334ae11bd6e373fa9fec6f52302a2,71.68.35.187,"Mozilla/5.0 (Macintosh; Intel Mac OS X 10_15_7) AppleWebKit/537.36 (KHTML, like Gecko) Chrome/126.0.0.0 Safari/537.36",Macintosh,Chrome,126.0.0.0,OS X,10_15_7,https://app.prolific.com/,"en-US,en;q=0.9",7rho3nl0l,665bfb064aa592a13b14803c,,,,,,<div style='display:flex; justify-content:center; align-items:center;'><img src='img/map1_coffee_sidewalk_shortest.png' style='width:600px; height:auto;' /></div>,image_trial,,50,img/map1_coffee_sidewalk_shortest.png
2832,50,html-slider-response,12,172056,0.0-12.0,10,1,2024-07-22 20:30:03,c42334ae11bd6e373fa9fec6f52302a2,71.68.35.187,"Mozilla/5.0 (Macintosh; Intel Mac OS X 10_15_7) AppleWebKit/537.36 (KHTML, like Gecko) Chrome/126.0.0.0 Safari/537.36",Macintosh,Chrome,126.0.0.0,OS X,10_15_7,https://app.prolific.com/,"en-US,en;q=0.9",7rho3nl0l,665bfb064aa592a13b14803c,,,,,,<div style='display:flex; justify-content:center; align-items:center;'><img src='img/map2_hospital_grass_shortest.png' style='width:600px; height:auto;' /></div>,image_trial,,50,img/map2_hospital_grass_shortest.png
5653,50,html-slider-response,13,177710,0.0-13.0,10,1,2024-07-22 20:30:03,c42334ae11bd6e373fa9fec6f52302a2,71.68.35.187,"Mozilla/5.0 (Macintosh; Intel Mac OS X 10_15_7) AppleWebKit/537.36 (KHTML, like Gecko) Chrome/126.0.0.0 Safari/537.36",Macintosh,Chrome,126.0.0.0,OS X,10_15_7,https://app.prolific.com/,"en-US,en;q=0.9",7rho3nl0l,665bfb064aa592a13b14803c,,,,,,<div style='display:flex; justify-content:center; align-items:center;'><img src='img/map2_bus_grass_wandering.png' style='width:600px; height:auto;' /></div>,image_trial,,50,img/map2_bus_grass_wandering.png
5440,50,html-slider-response,14,183152,0.0-14.0,10,1,2024-07-22 20:30:03,c42334ae11bd6e373fa9fec6f52302a2,71.68.35.187,"Mozilla/5.0 (Macintosh; Intel Mac OS X 10_15_7) AppleWebKit/537.36 (KHTML, like Gecko) Chrome/126.0.0.0 Safari/537.36",Macintosh,Chrome,126.0.0.0,OS X,10_15_7,https://app.prolific.com/,"en-US,en;q=0.9",7rho3nl0l,665bfb064aa592a13b14803c,,,,,,<div style='display:flex; justify-content:center; align-items:center;'><img src='img/map1_hospital_grass_wandering.png' style='width:600px; height:auto;' /></div>,image_trial,,50,img/map1_hospital_grass_wandering.png
3701,50,html-slider-response,15,186853,0.0-15.0,10,1,2024-07-22 20:30:03,c42334ae11bd6e373fa9fec6f52302a2,71.68.35.187,"Mozilla/5.0 (Macintosh; Intel Mac OS X 10_15_7) AppleWebKit/537.36 (KHTML, like Gecko) Chrome/126.0.0.0 Safari/537.36",Macintosh,Chrome,126.0.0.0,OS X,10_15_7,https://app.prolific.com/,"en-US,en;q=0.9",7rho3nl0l,665bfb064aa592a13b14803c,,,,,,<div style='display:flex; justify-content:center; align-items:center;'><img src='img/map3_coffee_grass_shortest.png' style='width:600px; height:auto;' /></div>,image_trial,,50,img/map3_coffee_grass_shortest.png
3806,55,html-slider-response,16,190661,0.0-16.0,10,1,2024-07-22 20:30:03,c42334ae11bd6e373fa9fec6f52302a2,71.68.35.187,"Mozilla/5.0 (Macintosh; Intel Mac OS X 10_15_7) AppleWebKit/537.36 (KHTML, like Gecko) Chrome/126.0.0.0 Safari/537.36",Macintosh,Chrome,126.0.0.0,OS X,10_15_7,https://app.prolific.com/,"en-US,en;q=0.9",7rho3nl0l,665bfb064aa592a13b14803c,,,,,,<div style='display:flex; justify-content:center; align-items:center;'><img src='img/map3_bus_grass_shortest.png' style='width:600px; height:auto;' /></div>,image_trial,,50,img/map3_bus_grass_shortest.png
2185,50,html-slider-response,17,192847,0.0-17.0,10,1,2024-07-22 20:30:03,c42334ae11bd6e373fa9fec6f52302a2,71.68.35.187,"Mozilla/5.0 (Macintosh; Intel Mac OS X 10_15_7) AppleWebKit/537.36 (KHTML, like Gecko) Chrome/126.0.0.0 Safari/537.36",Macintosh,Chrome,126.0.0.0,OS X,10_15_7,https://app.prolific.com/,"en-US,en;q=0.9",7rho3nl0l,665bfb064aa592a13b14803c,,,,,,<div style='display:flex; justify-content:center; align-items:center;'><img src='img/map3_bus_grass_wandering.png' style='width:600px; height:auto;' /></div>,image_trial,,50,img/map3_bus_grass_wandering.png
6175,63,html-slider-response,18,199023,0.0-18.0,10,1,2024-07-22 20:30:03,c42334ae11bd6e373fa9fec6f52302a2,71.68.35.187,"Mozilla/5.0 (Macintosh; Intel Mac OS X 10_15_7) AppleWebKit/537.36 (KHTML, like Gecko) Chrome/126.0.0.0 Safari/537.36",Macintosh,Chrome,126.0.0.0,OS X,10_15_7,https://app.prolific.com/,"en-US,en;q=0.9",7rho3nl0l,665bfb064aa592a13b14803c,,,,,,<div style='display:flex; justify-content:center; align-items:center;'><img src='img/map3_hospital_sidewalk_shortest.png' style='width:600px; height:auto;' /></div>,image_trial,,50,img/map3_hospital_sidewalk_shortest.png
2948,87,html-slider-response,19,201973,0.0-19.0,10,1,2024-07-22 20:30:03,c42334ae11bd6e373fa9fec6f52302a2,71.68.35.187,"Mozilla/5.0 (Macintosh; Intel Mac OS X 10_15_7) AppleWebKit/537.36 (KHTML, like Gecko) Chrome/126.0.0.0 Safari/537.36",Macintosh,Chrome,126.0.0.0,OS X,10_15_7,https://app.prolific.com/,"en-US,en;q=0.9",7rho3nl0l,665bfb064aa592a13b14803c,,,,,,<div style='display:flex; justify-content:center; align-items:center;'><img src='img/map1_bus_sidewalk_shortest.png' style='width:600px; height:auto;' /></div>,image_trial,,50,img/map1_bus_sidewalk_shortest.png
2955,84,html-slider-response,20,204929,0.0-20.0,10,1,2024-07-22 20:30:03,c42334ae11bd6e373fa9fec6f52302a2,71.68.35.187,"Mozilla/5.0 (Macintosh; Intel Mac OS X 10_15_7) AppleWebKit/537.36 (KHTML, like Gecko) Chrome/126.0.0.0 Safari/537.36",Macintosh,Chrome,126.0.0.0,OS X,10_15_7,https://app.prolific.com/,"en-US,en;q=0.9",7rho3nl0l,665bfb064aa592a13b14803c,,,,,,<div style='display:flex; justify-content:center; align-items:center;'><img src='img/map1_hospital_sidewalk_shortest.png' style='width:600px; height:auto;' /></div>,image_trial,,50,img/map1_hospital_sidewalk_shortest.png
2639,50,html-slider-response,21,207569,0.0-21.0,10,1,2024-07-22 20:30:03,c42334ae11bd6e373fa9fec6f52302a2,71.68.35.187,"Mozilla/5.0 (Macintosh; Intel Mac OS X 10_15_7) AppleWebKit/537.36 (KHTML, like Gecko) Chrome/126.0.0.0 Safari/537.36",Macintosh,Chrome,126.0.0.0,OS X,10_15_7,https://app.prolific.com/,"en-US,en;q=0.9",7rho3nl0l,665bfb064aa592a13b14803c,,,,,,<div style='display:flex; justify-content:center; align-items:center;'><img src='img/map1_coffee_grass_wandering.png' style='width:600px; height:auto;' /></div>,image_trial,,50,img/map1_coffee_grass_wandering.png
2678,83,html-slider-response,22,210249,0.0-22.0,10,1,2024-07-22 20:30:03,c42334ae11bd6e373fa9fec6f52302a2,71.68.35.187,"Mozilla/5.0 (Macintosh; Intel Mac OS X 10_15_7) AppleWebKit/537.36 (KHTML, like Gecko) Chrome/126.0.0.0 Safari/537.36",Macintosh,Chrome,126.0.0.0,OS X,10_15_7,https://app.prolific.com/,"en-US,en;q=0.9",7rho3nl0l,665bfb064aa592a13b14803c,,,,,,<div style='display:flex; justify-content:center; align-items:center;'><img src='img/map2_hospital_sidewalk_shortest.png' style='width:600px; height:auto;' /></div>,image_trial,,50,img/map2_hospital_sidewalk_shortest.png
4594,50,html-slider-response,23,214844,0.0-23.0,10,1,2024-07-22 20:30:03,c42334ae11bd6e373fa9fec6f52302a2,71.68.35.187,"Mozilla/5.0 (Macintosh; Intel Mac OS X 10_15_7) AppleWebKit/537.36 (KHTML, like Gecko) Chrome/126.0.0.0 Safari/537.36",Macintosh,Chrome,126.0.0.0,OS X,10_15_7,https://app.prolific.com/,"en-US,en;q=0.9",7rho3nl0l,665bfb064aa592a13b14803c,,,,,,<div style='display:flex; justify-content:center; align-items:center;'><img src='img/map3_coffee_grass_wandering.png' style='width:600px; height:auto;' /></div>,image_trial,,50,img/map3_coffee_grass_wandering.png
3459,85,html-slider-response,24,218304,0.0-24.0,10,1,2024-07-22 20:30:03,c42334ae11bd6e373fa9fec6f52302a2,71.68.35.187,"Mozilla/5.0 (Macintosh; Intel Mac OS X 10_15_7) AppleWebKit/537.36 (KHTML, like Gecko) Chrome/126.0.0.0 Safari/537.36",Macintosh,Chrome,126.0.0.0,OS X,10_15_7,https://app.prolific.com/,"en-US,en;q=0.9",7rho3nl0l,665bfb064aa592a13b14803c,,,,,,<div style='display:flex; justify-content:center; align-items:center;'><img src='img/map3_bus_sidewalk_shortest.png' style='width:600px; height:auto;' /></div>,image_trial,,50,img/map3_bus_sidewalk_shortest.png
3684,85,html-slider-response,25,221990,0.0-25.0,10,1,2024-07-22 20:30:03,c42334ae11bd6e373fa9fec6f52302a2,71.68.35.187,"Mozilla/5.0 (Macintosh; Intel Mac OS X 10_15_7) AppleWebKit/537.36 (KHTML, like Gecko) Chrome/126.0.0.0 Safari/537.36",Macintosh,Chrome,126.0.0.0,OS X,10_15_7,https://app.prolific.com/,"en-US,en;q=0.9",7rho3nl0l,665bfb064aa592a13b14803c,,,,,,<div style='display:flex; justify-content:center; align-items:center;'><img src='img/map3_coffee_sidewalk_shortest.png' style='width:600px; height:auto;' /></div>,image_trial,,50,img/map3_coffee_sidewalk_shortest.png
2576,69,html-slider-response,26,224567,0.0-26.0,10,1,2024-07-22 20:30:03,c42334ae11bd6e373fa9fec6f52302a2,71.68.35.187,"Mozilla/5.0 (Macintosh; Intel Mac OS X 10_15_7) AppleWebKit/537.36 (KHTML, like Gecko) Chrome/126.0.0.0 Safari/537.36",Macintosh,Chrome,126.0.0.0,OS X,10_15_7,https://app.prolific.com/,"en-US,en;q=0.9",7rho3nl0l,665bfb064aa592a13b14803c,,,,,,<div style='display:flex; justify-content:center; align-items:center;'><img src='img/map1_bus_grass_shortest.png' style='width:600px; height:auto;' /></div>,image_trial,,50,img/map1_bus_grass_shortest.png
2302,50,html-slider-response,27,226871,0.0-27.0,10,1,2024-07-22 20:30:03,c42334ae11bd6e373fa9fec6f52302a2,71.68.35.187,"Mozilla/5.0 (Macintosh; Intel Mac OS X 10_15_7) AppleWebKit/537.36 (KHTML, like Gecko) Chrome/126.0.0.0 Safari/537.36",Macintosh,Chrome,126.0.0.0,OS X,10_15_7,https://app.prolific.com/,"en-US,en;q=0.9",7rho3nl0l,665bfb064aa592a13b14803c,,,,,,<div style='display:flex; justify-content:center; align-items:center;'><img src='img/map1_bus_grass_wandering.png' style='width:600px; height:auto;' /></div>,image_trial,,50,img/map1_bus_grass_wandering.png
5030,50,html-slider-response,28,231902,0.0-28.0,10,1,2024-07-22 20:30:03,c42334ae11bd6e373fa9fec6f52302a2,71.68.35.187,"Mozilla/5.0 (Macintosh; Intel Mac OS X 10_15_7) AppleWebKit/537.36 (KHTML, like Gecko) Chrome/126.0.0.0 Safari/537.36",Macintosh,Chrome,126.0.0.0,OS X,10_15_7,https://app.prolific.com/,"en-US,en;q=0.9",7rho3nl0l,665bfb064aa592a13b14803c,,,,,,<div style='display:flex; justify-content:center; align-items:center;'><img src='img/map3_hospital_grass_wandering.png' style='width:600px; height:auto;' /></div>,image_trial,,50,img/map3_hospital_grass_wandering.png
3858,51,html-slider-response,29,235762,0.0-29.0,10,1,2024-07-22 20:30:03,c42334ae11bd6e373fa9fec6f52302a2,71.68.35.187,"Mozilla/5.0 (Macintosh; Intel Mac OS X 10_15_7) AppleWebKit/537.36 (KHTML, like Gecko) Chrome/126.0.0.0 Safari/537.36",Macintosh,Chrome,126.0.0.0,OS X,10_15_7,https://app.prolific.com/,"en-US,en;q=0.9",7rho3nl0l,665bfb064aa592a13b14803c,,,,,,<div style='display:flex; justify-content:center; align-items:center;'><img src='img/map2_hospital_grass_wandering.png' style='width:600px; height:auto;' /></div>,image_trial,,50,img/map2_hospital_grass_wandering.png
5163,81,html-slider-response,30,240927,0.0-30.0,10,1,2024-07-22 20:30:03,c42334ae11bd6e373fa9fec6f52302a2,71.68.35.187,"Mozilla/5.0 (Macintosh; Intel Mac OS X 10_15_7) AppleWebKit/537.36 (KHTML, like Gecko) Chrome/126.0.0.0 Safari/537.36",Macintosh,Chrome,126.0.0.0,OS X,10_15_7,https://app.prolific.com/,"en-US,en;q=0.9",7rho3nl0l,665bfb064aa592a13b14803c,,,,,,<div style='display:flex; justify-content:center; align-items:center;'><img src='img/map2_coffee_sidewalk_shortest.png' style='width:600px; height:auto;' /></div>,image_trial,,50,img/map2_coffee_sidewalk_shortest.png
2304,85,html-slider-response,31,243233,0.0-31.0,10,1,2024-07-22 20:30:03,c42334ae11bd6e373fa9fec6f52302a2,71.68.35.187,"Mozilla/5.0 (Macintosh; Intel Mac OS X 10_15_7) AppleWebKit/537.36 (KHTML, like Gecko) Chrome/126.0.0.0 Safari/537.36",Macintosh,Chrome,126.0.0.0,OS X,10_15_7,https://app.prolific.com/,"en-US,en;q=0.9",7rho3nl0l,665bfb064aa592a13b14803c,,,,,,<div style='display:flex; justify-content:center; align-items:center;'><img src='img/map2_bus_sidewalk_shortest.png' style='width:600px; height:auto;' /></div>,image_trial,,50,img/map2_bus_sidewalk_shortest.png
2565,50,html-slider-response,32,245799,0.0-32.0,10,1,2024-07-22 20:30:03,c42334ae11bd6e373fa9fec6f52302a2,71.68.35.187,"Mozilla/5.0 (Macintosh; Intel Mac OS X 10_15_7) AppleWebKit/537.36 (KHTML, like Gecko) Chrome/126.0.0.0 Safari/537.36",Macintosh,Chrome,126.0.0.0,OS X,10_15_7,https://app.prolific.com/,"en-US,en;q=0.9",7rho3nl0l,665bfb064aa592a13b14803c,,,,,,<div style='display:flex; justify-content:center; align-items:center;'><img src='img/map3_hospital_grass_shortest.png' style='width:600px; height:auto;' /></div>,image_trial,,50,img/map3_hospital_grass_shortest.png
3506,50,html-slider-response,33,249306,0.0-33.0,10,1,2024-07-22 20:30:03,c42334ae11bd6e373fa9fec6f52302a2,71.68.35.187,"Mozilla/5.0 (Macintosh; Intel Mac OS X 10_15_7) AppleWebKit/537.36 (KHTML, like Gecko) Chrome/126.0.0.0 Safari/537.36",Macintosh,Chrome,126.0.0.0,OS X,10_15_7,https://app.prolific.com/,"en-US,en;q=0.9",7rho3nl0l,665bfb064aa592a13b14803c,,,,,,<div style='display:flex; justify-content:center; align-items:center;'><img src='img/map2_coffee_grass_wandering.png' style='width:600px; height:auto;' /></div>,image_trial,,50,img/map2_coffee_grass_wandering.png
21959,"[{""name"":""understand"",""value"":""yes""},{""name"":""problems"",""value"":""No""},{""name"":""age"",""value"":""52""},{""name"":""gender"",""value"":""male""},{""name"":""comments"",""value"":""NA""}]",survey-html-form,34,271267,0.0-34.0,10,1,2024-07-22 20:30:03,c42334ae11bd6e373fa9fec6f52302a2,71.68.35.187,"Mozilla/5.0 (Macintosh; Intel Mac OS X 10_15_7) AppleWebKit/537.36 (KHTML, like Gecko) Chrome/126.0.0.0 Safari/537.36",Macintosh,Chrome,126.0.0.0,OS X,10_15_7,https://app.prolific.com/,"en-US,en;q=0.9",7rho3nl0l,665bfb064aa592a13b14803c,,,,,,,debrief,,,
9118,"{""Q0"":""7rho3nl0l""}",survey-text,35,280387,0.0-35.0,10,1,2024-07-22 20:30:03,c42334ae11bd6e373fa9fec6f52302a2,71.68.35.187,"Mozilla/5.0 (Macintosh; Intel Mac OS X 10_15_7) AppleWebKit/537.36 (KHTML, like Gecko) Chrome/126.0.0.0 Safari/537.36",Macintosh,Chrome,126.0.0.0,OS X,10_15_7,https://app.prolific.com/,"en-US,en;q=0.9",7rho3nl0l,665bfb064aa592a13b14803c,,,,,,,,,,
36837,"{""prolific_id"":""63ce4a983479277bba4987c5""}",survey-text,0,36844,0.0-0.0,12,1,2024-07-22 20:30:36,c42334ae11bd6e373fa9fec6f52302a2,97.176.16.79,Mozilla/5.0 (Windows NT 10.0; Win64; x64; rv:128.0) Gecko/20100101 Firefox/128.0,,Firefox,128.0,Windows,10.0,https://app.prolific.com/,"en-US,en;q=0.5",bw4166q7z,63ce4a983479277bba4987c5,,,,,,,,,,
,,preload,1,51028,0.0-1.0,12,1,2024-07-22 20:30:36,c42334ae11bd6e373fa9fec6f52302a2,97.176.16.79,Mozilla/5.0 (Windows NT 10.0; Win64; x64; rv:128.0) Gecko/20100101 Firefox/128.0,,Firefox,128.0,Windows,10.0,https://app.prolific.com/,"en-US,en;q=0.5",bw4166q7z,63ce4a983479277bba4987c5,true,false,[],[],[],,,,,
41474, ,html-keyboard-response,2,92506,0.0-2.0,12,1,2024-07-22 20:30:36,c42334ae11bd6e373fa9fec6f52302a2,97.176.16.79,Mozilla/5.0 (Windows NT 10.0; Win64; x64; rv:128.0) Gecko/20100101 Firefox/128.0,,Firefox,128.0,Windows,10.0,https://app.prolific.com/,"en-US,en;q=0.5",bw4166q7z,63ce4a983479277bba4987c5,,,,,,"<p style=""text-align:center;width:700px;""> Welcome to the experiment! This study takes most people around 10 minutes to complete. Please complete it in one sitting.</p>",,,,
328168,y,html-keyboard-response,3,420677,0.0-3.0,12,1,2024-07-22 20:30:36,c42334ae11bd6e373fa9fec6f52302a2,97.176.16.79,Mozilla/5.0 (Windows NT 10.0; Win64; x64; rv:128.0) Gecko/20100101 Firefox/128.0,,Firefox,128.0,Windows,10.0,https://app.prolific.com/,"en-US,en;q=0.5",bw4166q7z,63ce4a983479277bba4987c5,,,,,,"<p style = ""font-size:16px;"">MIT Computational Cognitive Science Lab</p><h4>Press the 'y' key to consent.</h4><div style = ""background-color:#f2f2f2;""><h3>Informed Consent Form</h3><div style=""text-align:left;width:700px;""><p style = ""font-size:16px;"">In this study, you will be asked to read a set of instructions that describe a particular scenario, and you will then be asked to perform a simple task relating to that scenario. There will also be comprehension and attention checks. Participants who do not answer these checks correctly cannot be approved. In order to get credit for this study, you must read all the questions fully and answer honestly. You may only complete this study once. If you complete this study multiple times, you will be rejected.</p><p style = ""font-size:16px;"">This study is part of a MIT scientific research project. Your decision to complete this study is voluntary. There is no way for us to identify you. The only information we will have, in addition to your responses, is the time at which you completed the survey. The results of the research may be presented at scientific meetings or published in scientific journals. Pressing the ""Y"" key indicates that you are at least 18 years of age, and agree to complete this study voluntarily. Press the ""Y"" key to confirm your agreement and continue.</p></div>",,,,
1804921,"{""instructions1"":""destinations""}",survey-text,4,2225613,0.0-4.0,12,1,2024-07-22 20:30:36,c42334ae11bd6e373fa9fec6f52302a2,97.176.16.79,Mozilla/5.0 (Windows NT 10.0; Win64; x64; rv:128.0) Gecko/20100101 Firefox/128.0,,Firefox,128.0,Windows,10.0,https://app.prolific.com/,"en-US,en;q=0.5",bw4166q7z,63ce4a983479277bba4987c5,,,,,,,instructions,,,
4068,"{""instructions2"":""yes""}",survey-text,5,2229699,0.0-5.0,12,1,2024-07-22 20:30:36,c42334ae11bd6e373fa9fec6f52302a2,97.176.16.79,Mozilla/5.0 (Windows NT 10.0; Win64; x64; rv:128.0) Gecko/20100101 Firefox/128.0,,Firefox,128.0,Windows,10.0,https://app.prolific.com/,"en-US,en;q=0.5",bw4166q7z,63ce4a983479277bba4987c5,,,,,,,instructions,,,
30301,"{""map_attention"":""Maps showing a small city, park, and destinations"",""squares_attention"":""Two terrains (lava and floor) and three destinations (urgent care, bus stop, coffee shop)"",""answer_attention"":""Based on your own best judgment based on the map that you see, as well as your <i>own</i> common sense intuitions about towns and these kinds of destinations in general.""}",survey-multi-choice,6,2260006,0.0-6.0,12,1,2024-07-22 20:30:36,c42334ae11bd6e373fa9fec6f52302a2,97.176.16.79,Mozilla/5.0 (Windows NT 10.0; Win64; x64; rv:128.0) Gecko/20100101 Firefox/128.0,,Firefox,128.0,Windows,10.0,https://app.prolific.com/,"en-US,en;q=0.5",bw4166q7z,63ce4a983479277bba4987c5,,,,,,,,"[0,1,2]",,
6447,58,html-slider-response,7,2266459,0.0-7.0,12,1,2024-07-22 20:30:36,c42334ae11bd6e373fa9fec6f52302a2,97.176.16.79,Mozilla/5.0 (Windows NT 10.0; Win64; x64; rv:128.0) Gecko/20100101 Firefox/128.0,,Firefox,128.0,Windows,10.0,https://app.prolific.com/,"en-US,en;q=0.5",bw4166q7z,63ce4a983479277bba4987c5,,,,,,<div style='display:flex; justify-content:center; align-items:center;'><img src='img/map2_bus_grass_wandering.png' style='width:600px; height:auto;' /></div>,image_trial,,50,img/map2_bus_grass_wandering.png
3768,82,html-slider-response,8,2270229,0.0-8.0,12,1,2024-07-22 20:30:36,c42334ae11bd6e373fa9fec6f52302a2,97.176.16.79,Mozilla/5.0 (Windows NT 10.0; Win64; x64; rv:128.0) Gecko/20100101 Firefox/128.0,,Firefox,128.0,Windows,10.0,https://app.prolific.com/,"en-US,en;q=0.5",bw4166q7z,63ce4a983479277bba4987c5,,,,,,<div style='display:flex; justify-content:center; align-items:center;'><img src='img/map2_coffee_grass_shortest.png' style='width:600px; height:auto;' /></div>,image_trial,,50,img/map2_coffee_grass_shortest.png
6285,60,html-slider-response,9,2276520,0.0-9.0,12,1,2024-07-22 20:30:36,c42334ae11bd6e373fa9fec6f52302a2,97.176.16.79,Mozilla/5.0 (Windows NT 10.0; Win64; x64; rv:128.0) Gecko/20100101 Firefox/128.0,,Firefox,128.0,Windows,10.0,https://app.prolific.com/,"en-US,en;q=0.5",bw4166q7z,63ce4a983479277bba4987c5,,,,,,<div style='display:flex; justify-content:center; align-items:center;'><img src='img/map1_hospital_sidewalk_shortest.png' style='width:600px; height:auto;' /></div>,image_trial,,50,img/map1_hospital_sidewalk_shortest.png
7023,63,html-slider-response,10,2283547,0.0-10.0,12,1,2024-07-22 20:30:36,c42334ae11bd6e373fa9fec6f52302a2,97.176.16.79,Mozilla/5.0 (Windows NT 10.0; Win64; x64; rv:128.0) Gecko/20100101 Firefox/128.0,,Firefox,128.0,Windows,10.0,https://app.prolific.com/,"en-US,en;q=0.5",bw4166q7z,63ce4a983479277bba4987c5,,,,,,<div style='display:flex; justify-content:center; align-items:center;'><img src='img/map3_hospital_grass_wandering.png' style='width:600px; height:auto;' /></div>,image_trial,,50,img/map3_hospital_grass_wandering.png
2615,41,html-slider-response,11,2286164,0.0-11.0,12,1,2024-07-22 20:30:36,c42334ae11bd6e373fa9fec6f52302a2,97.176.16.79,Mozilla/5.0 (Windows NT 10.0; Win64; x64; rv:128.0) Gecko/20100101 Firefox/128.0,,Firefox,128.0,Windows,10.0,https://app.prolific.com/,"en-US,en;q=0.5",bw4166q7z,63ce4a983479277bba4987c5,,,,,,<div style='display:flex; justify-content:center; align-items:center;'><img src='img/map1_coffee_grass_wandering.png' style='width:600px; height:auto;' /></div>,image_trial,,50,img/map1_coffee_grass_wandering.png
2328,41,html-slider-response,12,2288494,0.0-12.0,12,1,2024-07-22 20:30:36,c42334ae11bd6e373fa9fec6f52302a2,97.176.16.79,Mozilla/5.0 (Windows NT 10.0; Win64; x64; rv:128.0) Gecko/20100101 Firefox/128.0,,Firefox,128.0,Windows,10.0,https://app.prolific.com/,"en-US,en;q=0.5",bw4166q7z,63ce4a983479277bba4987c5,,,,,,<div style='display:flex; justify-content:center; align-items:center;'><img src='img/map3_coffee_grass_shortest.png' style='width:600px; height:auto;' /></div>,image_trial,,50,img/map3_coffee_grass_shortest.png
3843,63,html-slider-response,13,2292340,0.0-13.0,12,1,2024-07-22 20:30:36,c42334ae11bd6e373fa9fec6f52302a2,97.176.16.79,Mozilla/5.0 (Windows NT 10.0; Win64; x64; rv:128.0) Gecko/20100101 Firefox/128.0,,Firefox,128.0,Windows,10.0,https://app.prolific.com/,"en-US,en;q=0.5",bw4166q7z,63ce4a983479277bba4987c5,,,,,,<div style='display:flex; justify-content:center; align-items:center;'><img src='img/map2_coffee_sidewalk_shortest.png' style='width:600px; height:auto;' /></div>,image_trial,,50,img/map2_coffee_sidewalk_shortest.png
4776,64,html-slider-response,14,2297117,0.0-14.0,12,1,2024-07-22 20:30:36,c42334ae11bd6e373fa9fec6f52302a2,97.176.16.79,Mozilla/5.0 (Windows NT 10.0; Win64; x64; rv:128.0) Gecko/20100101 Firefox/128.0,,Firefox,128.0,Windows,10.0,https://app.prolific.com/,"en-US,en;q=0.5",bw4166q7z,63ce4a983479277bba4987c5,,,,,,<div style='display:flex; justify-content:center; align-items:center;'><img src='img/map2_bus_grass_shortest.png' style='width:600px; height:auto;' /></div>,image_trial,,50,img/map2_bus_grass_shortest.png
3793,42,html-slider-response,15,2300912,0.0-15.0,12,1,2024-07-22 20:30:36,c42334ae11bd6e373fa9fec6f52302a2,97.176.16.79,Mozilla/5.0 (Windows NT 10.0; Win64; x64; rv:128.0) Gecko/20100101 Firefox/128.0,,Firefox,128.0,Windows,10.0,https://app.prolific.com/,"en-US,en;q=0.5",bw4166q7z,63ce4a983479277bba4987c5,,,,,,<div style='display:flex; justify-content:center; align-items:center;'><img src='img/map1_bus_sidewalk_shortest.png' style='width:600px; height:auto;' /></div>,image_trial,,50,img/map1_bus_sidewalk_shortest.png
3778,71,html-slider-response,16,2304693,0.0-16.0,12,1,2024-07-22 20:30:36,c42334ae11bd6e373fa9fec6f52302a2,97.176.16.79,Mozilla/5.0 (Windows NT 10.0; Win64; x64; rv:128.0) Gecko/20100101 Firefox/128.0,,Firefox,128.0,Windows,10.0,https://app.prolific.com/,"en-US,en;q=0.5",bw4166q7z,63ce4a983479277bba4987c5,,,,,,<div style='display:flex; justify-content:center; align-items:center;'><img src='img/map1_coffee_sidewalk_shortest.png' style='width:600px; height:auto;' /></div>,image_trial,,50,img/map1_coffee_sidewalk_shortest.png
2347,48,html-slider-response,17,2307042,0.0-17.0,12,1,2024-07-22 20:30:36,c42334ae11bd6e373fa9fec6f52302a2,97.176.16.79,Mozilla/5.0 (Windows NT 10.0; Win64; x64; rv:128.0) Gecko/20100101 Firefox/128.0,,Firefox,128.0,Windows,10.0,https://app.prolific.com/,"en-US,en;q=0.5",bw4166q7z,63ce4a983479277bba4987c5,,,,,,<div style='display:flex; justify-content:center; align-items:center;'><img src='img/map2_bus_sidewalk_shortest.png' style='width:600px; height:auto;' /></div>,image_trial,,50,img/map2_bus_sidewalk_shortest.png
1894,62,html-slider-response,18,2308939,0.0-18.0,12,1,2024-07-22 20:30:36,c42334ae11bd6e373fa9fec6f52302a2,97.176.16.79,Mozilla/5.0 (Windows NT 10.0; Win64; x64; rv:128.0) Gecko/20100101 Firefox/128.0,,Firefox,128.0,Windows,10.0,https://app.prolific.com/,"en-US,en;q=0.5",bw4166q7z,63ce4a983479277bba4987c5,,,,,,<div style='display:flex; justify-content:center; align-items:center;'><img src='img/map1_bus_grass_wandering.png' style='width:600px; height:auto;' /></div>,image_trial,,50,img/map1_bus_grass_wandering.png
2658,57,html-slider-response,19,2311600,0.0-19.0,12,1,2024-07-22 20:30:36,c42334ae11bd6e373fa9fec6f52302a2,97.176.16.79,Mozilla/5.0 (Windows NT 10.0; Win64; x64; rv:128.0) Gecko/20100101 Firefox/128.0,,Firefox,128.0,Windows,10.0,https://app.prolific.com/,"en-US,en;q=0.5",bw4166q7z,63ce4a983479277bba4987c5,,,,,,<div style='display:flex; justify-content:center; align-items:center;'><img src='img/map3_coffee_grass_wandering.png' style='width:600px; height:auto;' /></div>,image_trial,,50,img/map3_coffee_grass_wandering.png
2219,60,html-slider-response,20,2313822,0.0-20.0,12,1,2024-07-22 20:30:36,c42334ae11bd6e373fa9fec6f52302a2,97.176.16.79,Mozilla/5.0 (Windows NT 10.0; Win64; x64; rv:128.0) Gecko/20100101 Firefox/128.0,,Firefox,128.0,Windows,10.0,https://app.prolific.com/,"en-US,en;q=0.5",bw4166q7z,63ce4a983479277bba4987c5,,,,,,<div style='display:flex; justify-content:center; align-items:center;'><img src='img/map2_hospital_grass_wandering.png' style='width:600px; height:auto;' /></div>,image_trial,,50,img/map2_hospital_grass_wandering.png
2134,58,html-slider-response,21,2315961,0.0-21.0,12,1,2024-07-22 20:30:36,c42334ae11bd6e373fa9fec6f52302a2,97.176.16.79,Mozilla/5.0 (Windows NT 10.0; Win64; x64; rv:128.0) Gecko/20100101 Firefox/128.0,,Firefox,128.0,Windows,10.0,https://app.prolific.com/,"en-US,en;q=0.5",bw4166q7z,63ce4a983479277bba4987c5,,,,,,<div style='display:flex; justify-content:center; align-items:center;'><img src='img/map1_hospital_grass_shortest.png' style='width:600px; height:auto;' /></div>,image_trial,,50,img/map1_hospital_grass_shortest.png
8082,63,html-slider-response,22,2324047,0.0-22.0,12,1,2024-07-22 20:30:36,c42334ae11bd6e373fa9fec6f52302a2,97.176.16.79,Mozilla/5.0 (Windows NT 10.0; Win64; x64; rv:128.0) Gecko/20100101 Firefox/128.0,,Firefox,128.0,Windows,10.0,https://app.prolific.com/,"en-US,en;q=0.5",bw4166q7z,63ce4a983479277bba4987c5,,,,,,<div style='display:flex; justify-content:center; align-items:center;'><img src='img/map1_bus_grass_shortest.png' style='width:600px; height:auto;' /></div>,image_trial,,50,img/map1_bus_grass_shortest.png
1764,80,html-slider-response,23,2325813,0.0-23.0,12,1,2024-07-22 20:30:36,c42334ae11bd6e373fa9fec6f52302a2,97.176.16.79,Mozilla/5.0 (Windows NT 10.0; Win64; x64; rv:128.0) Gecko/20100101 Firefox/128.0,,Firefox,128.0,Windows,10.0,https://app.prolific.com/,"en-US,en;q=0.5",bw4166q7z,63ce4a983479277bba4987c5,,,,,,<div style='display:flex; justify-content:center; align-items:center;'><img src='img/map3_hospital_sidewalk_shortest.png' style='width:600px; height:auto;' /></div>,image_trial,,50,img/map3_hospital_sidewalk_shortest.png
1675,42,html-slider-response,24,2327490,0.0-24.0,12,1,2024-07-22 20:30:36,c42334ae11bd6e373fa9fec6f52302a2,97.176.16.79,Mozilla/5.0 (Windows NT 10.0; Win64; x64; rv:128.0) Gecko/20100101 Firefox/128.0,,Firefox,128.0,Windows,10.0,https://app.prolific.com/,"en-US,en;q=0.5",bw4166q7z,63ce4a983479277bba4987c5,,,,,,<div style='display:flex; justify-content:center; align-items:center;'><img src='img/map3_bus_sidewalk_shortest.png' style='width:600px; height:auto;' /></div>,image_trial,,50,img/map3_bus_sidewalk_shortest.png
1712,62,html-slider-response,25,2329203,0.0-25.0,12,1,2024-07-22 20:30:36,c42334ae11bd6e373fa9fec6f52302a2,97.176.16.79,Mozilla/5.0 (Windows NT 10.0; Win64; x64; rv:128.0) Gecko/20100101 Firefox/128.0,,Firefox,128.0,Windows,10.0,https://app.prolific.com/,"en-US,en;q=0.5",bw4166q7z,63ce4a983479277bba4987c5,,,,,,<div style='display:flex; justify-content:center; align-items:center;'><img src='img/map3_hospital_grass_shortest.png' style='width:600px; height:auto;' /></div>,image_trial,,50,img/map3_hospital_grass_shortest.png
2546,41,html-slider-response,26,2331751,0.0-26.0,12,1,2024-07-22 20:30:36,c42334ae11bd6e373fa9fec6f52302a2,97.176.16.79,Mozilla/5.0 (Windows NT 10.0; Win64; x64; rv:128.0) Gecko/20100101 Firefox/128.0,,Firefox,128.0,Windows,10.0,https://app.prolific.com/,"en-US,en;q=0.5",bw4166q7z,63ce4a983479277bba4987c5,,,,,,<div style='display:flex; justify-content:center; align-items:center;'><img src='img/map2_hospital_grass_shortest.png' style='width:600px; height:auto;' /></div>,image_trial,,50,img/map2_hospital_grass_shortest.png
2309,46,html-slider-response,27,2334061,0.0-27.0,12,1,2024-07-22 20:30:36,c42334ae11bd6e373fa9fec6f52302a2,97.176.16.79,Mozilla/5.0 (Windows NT 10.0; Win64; x64; rv:128.0) Gecko/20100101 Firefox/128.0,,Firefox,128.0,Windows,10.0,https://app.prolific.com/,"en-US,en;q=0.5",bw4166q7z,63ce4a983479277bba4987c5,,,,,,<div style='display:flex; justify-content:center; align-items:center;'><img src='img/map1_hospital_grass_wandering.png' style='width:600px; height:auto;' /></div>,image_trial,,50,img/map1_hospital_grass_wandering.png
1655,62,html-slider-response,28,2335719,0.0-28.0,12,1,2024-07-22 20:30:36,c42334ae11bd6e373fa9fec6f52302a2,97.176.16.79,Mozilla/5.0 (Windows NT 10.0; Win64; x64; rv:128.0) Gecko/20100101 Firefox/128.0,,Firefox,128.0,Windows,10.0,https://app.prolific.com/,"en-US,en;q=0.5",bw4166q7z,63ce4a983479277bba4987c5,,,,,,<div style='display:flex; justify-content:center; align-items:center;'><img src='img/map2_hospital_sidewalk_shortest.png' style='width:600px; height:auto;' /></div>,image_trial,,50,img/map2_hospital_sidewalk_shortest.png
1782,46,html-slider-response,29,2337504,0.0-29.0,12,1,2024-07-22 20:30:36,c42334ae11bd6e373fa9fec6f52302a2,97.176.16.79,Mozilla/5.0 (Windows NT 10.0; Win64; x64; rv:128.0) Gecko/20100101 Firefox/128.0,,Firefox,128.0,Windows,10.0,https://app.prolific.com/,"en-US,en;q=0.5",bw4166q7z,63ce4a983479277bba4987c5,,,,,,<div style='display:flex; justify-content:center; align-items:center;'><img src='img/map2_coffee_grass_wandering.png' style='width:600px; height:auto;' /></div>,image_trial,,50,img/map2_coffee_grass_wandering.png
1661,58,html-slider-response,30,2339168,0.0-30.0,12,1,2024-07-22 20:30:36,c42334ae11bd6e373fa9fec6f52302a2,97.176.16.79,Mozilla/5.0 (Windows NT 10.0; Win64; x64; rv:128.0) Gecko/20100101 Firefox/128.0,,Firefox,128.0,Windows,10.0,https://app.prolific.com/,"en-US,en;q=0.5",bw4166q7z,63ce4a983479277bba4987c5,,,,,,<div style='display:flex; justify-content:center; align-items:center;'><img src='img/map3_coffee_sidewalk_shortest.png' style='width:600px; height:auto;' /></div>,image_trial,,50,img/map3_coffee_sidewalk_shortest.png
1871,60,html-slider-response,31,2341041,0.0-31.0,12,1,2024-07-22 20:30:36,c42334ae11bd6e373fa9fec6f52302a2,97.176.16.79,Mozilla/5.0 (Windows NT 10.0; Win64; x64; rv:128.0) Gecko/20100101 Firefox/128.0,,Firefox,128.0,Windows,10.0,https://app.prolific.com/,"en-US,en;q=0.5",bw4166q7z,63ce4a983479277bba4987c5,,,,,,<div style='display:flex; justify-content:center; align-items:center;'><img src='img/map3_bus_grass_wandering.png' style='width:600px; height:auto;' /></div>,image_trial,,50,img/map3_bus_grass_wandering.png
1837,64,html-slider-response,32,2342880,0.0-32.0,12,1,2024-07-22 20:30:36,c42334ae11bd6e373fa9fec6f52302a2,97.176.16.79,Mozilla/5.0 (Windows NT 10.0; Win64; x64; rv:128.0) Gecko/20100101 Firefox/128.0,,Firefox,128.0,Windows,10.0,https://app.prolific.com/,"en-US,en;q=0.5",bw4166q7z,63ce4a983479277bba4987c5,,,,,,<div style='display:flex; justify-content:center; align-items:center;'><img src='img/map3_bus_grass_shortest.png' style='width:600px; height:auto;' /></div>,image_trial,,50,img/map3_bus_grass_shortest.png
1876,46,html-slider-response,33,2344758,0.0-33.0,12,1,2024-07-22 20:30:36,c42334ae11bd6e373fa9fec6f52302a2,97.176.16.79,Mozilla/5.0 (Windows NT 10.0; Win64; x64; rv:128.0) Gecko/20100101 Firefox/128.0,,Firefox,128.0,Windows,10.0,https://app.prolific.com/,"en-US,en;q=0.5",bw4166q7z,63ce4a983479277bba4987c5,,,,,,<div style='display:flex; justify-content:center; align-items:center;'><img src='img/map1_coffee_grass_shortest.png' style='width:600px; height:auto;' /></div>,image_trial,,50,img/map1_coffee_grass_shortest.png
17706,"[{""name"":""understand"",""value"":""yes""},{""name"":""problems"",""value"":""No""},{""name"":""age"",""value"":""48""},{""name"":""gender"",""value"":""female""},{""name"":""comments"",""value"":""""}]",survey-html-form,34,2362470,0.0-34.0,12,1,2024-07-22 20:30:36,c42334ae11bd6e373fa9fec6f52302a2,97.176.16.79,Mozilla/5.0 (Windows NT 10.0; Win64; x64; rv:128.0) Gecko/20100101 Firefox/128.0,,Firefox,128.0,Windows,10.0,https://app.prolific.com/,"en-US,en;q=0.5",bw4166q7z,63ce4a983479277bba4987c5,,,,,,,debrief,,,
13354,"{""Q0"":""bw4166q7z""}",survey-text,35,2375830,0.0-35.0,12,1,2024-07-22 20:30:36,c42334ae11bd6e373fa9fec6f52302a2,97.176.16.79,Mozilla/5.0 (Windows NT 10.0; Win64; x64; rv:128.0) Gecko/20100101 Firefox/128.0,,Firefox,128.0,Windows,10.0,https://app.prolific.com/,"en-US,en;q=0.5",bw4166q7z,63ce4a983479277bba4987c5,,,,,,,,,,
2358,"{""prolific_id"":""5f3af0d80bf2cb7a4b024a91""}",survey-text,0,2364,0.0-0.0,14,1,2024-07-22 20:30:47,c42334ae11bd6e373fa9fec6f52302a2,35.151.6.129,"Mozilla/5.0 (Windows NT 10.0; Win64; x64) AppleWebKit/537.36 (KHTML, like Gecko) Chrome/126.0.0.0 Safari/537.36",WebKit,Chrome,126.0.0.0,Windows,10.0,https://app.prolific.com/,"en-US,en;q=0.9",f74fmp243,5f3af0d80bf2cb7a4b024a91,,,,,,,,,,
,,preload,1,2856,0.0-1.0,14,1,2024-07-22 20:30:47,c42334ae11bd6e373fa9fec6f52302a2,35.151.6.129,"Mozilla/5.0 (Windows NT 10.0; Win64; x64) AppleWebKit/537.36 (KHTML, like Gecko) Chrome/126.0.0.0 Safari/537.36",WebKit,Chrome,126.0.0.0,Windows,10.0,https://app.prolific.com/,"en-US,en;q=0.9",f74fmp243,5f3af0d80bf2cb7a4b024a91,true,false,[],[],[],,,,,
2324, ,html-keyboard-response,2,5181,0.0-2.0,14,1,2024-07-22 20:30:47,c42334ae11bd6e373fa9fec6f52302a2,35.151.6.129,"Mozilla/5.0 (Windows NT 10.0; Win64; x64) AppleWebKit/537.36 (KHTML, like Gecko) Chrome/126.0.0.0 Safari/537.36",WebKit,Chrome,126.0.0.0,Windows,10.0,https://app.prolific.com/,"en-US,en;q=0.9",f74fmp243,5f3af0d80bf2cb7a4b024a91,,,,,,"<p style=""text-align:center;width:700px;""> Welcome to the experiment! This study takes most people around 10 minutes to complete. Please complete it in one sitting.</p>",,,,
1808,y,html-keyboard-response,3,6991,0.0-3.0,14,1,2024-07-22 20:30:47,c42334ae11bd6e373fa9fec6f52302a2,35.151.6.129,"Mozilla/5.0 (Windows NT 10.0; Win64; x64) AppleWebKit/537.36 (KHTML, like Gecko) Chrome/126.0.0.0 Safari/537.36",WebKit,Chrome,126.0.0.0,Windows,10.0,https://app.prolific.com/,"en-US,en;q=0.9",f74fmp243,5f3af0d80bf2cb7a4b024a91,,,,,,"<p style = ""font-size:16px;"">MIT Computational Cognitive Science Lab</p><h4>Press the 'y' key to consent.</h4><div style = ""background-color:#f2f2f2;""><h3>Informed Consent Form</h3><div style=""text-align:left;width:700px;""><p style = ""font-size:16px;"">In this study, you will be asked to read a set of instructions that describe a particular scenario, and you will then be asked to perform a simple task relating to that scenario. There will also be comprehension and attention checks. Participants who do not answer these checks correctly cannot be approved. In order to get credit for this study, you must read all the questions fully and answer honestly. You may only complete this study once. If you complete this study multiple times, you will be rejected.</p><p style = ""font-size:16px;"">This study is part of a MIT scientific research project. Your decision to complete this study is voluntary. There is no way for us to identify you. The only information we will have, in addition to your responses, is the time at which you completed the survey. The results of the research may be presented at scientific meetings or published in scientific journals. Pressing the ""Y"" key indicates that you are at least 18 years of age, and agree to complete this study voluntarily. Press the ""Y"" key to confirm your agreement and continue.</p></div>",,,,
15217,"{""instructions1"":""destinations and terrain""}",survey-text,4,22213,0.0-4.0,14,1,2024-07-22 20:30:47,c42334ae11bd6e373fa9fec6f52302a2,35.151.6.129,"Mozilla/5.0 (Windows NT 10.0; Win64; x64) AppleWebKit/537.36 (KHTML, like Gecko) Chrome/126.0.0.0 Safari/537.36",WebKit,Chrome,126.0.0.0,Windows,10.0,https://app.prolific.com/,"en-US,en;q=0.9",f74fmp243,5f3af0d80bf2cb7a4b024a91,,,,,,,instructions,,,
189988,"{""instructions2"":""Yes""}",survey-text,5,212204,0.0-5.0,14,1,2024-07-22 20:30:47,c42334ae11bd6e373fa9fec6f52302a2,35.151.6.129,"Mozilla/5.0 (Windows NT 10.0; Win64; x64) AppleWebKit/537.36 (KHTML, like Gecko) Chrome/126.0.0.0 Safari/537.36",WebKit,Chrome,126.0.0.0,Windows,10.0,https://app.prolific.com/,"en-US,en;q=0.9",f74fmp243,5f3af0d80bf2cb7a4b024a91,,,,,,,instructions,,,
27167,"{""map_attention"":""Maps showing a small city, park, and destinations"",""squares_attention"":""Two terrains (grass and sidewalk) and three destinations (urgent care, bus stop, coffee shop)"",""answer_attention"":""Based on your own best judgment based on the map that you see, as well as your <i>own</i> common sense intuitions about towns and these kinds of destinations in general.""}",survey-multi-choice,6,239373,0.0-6.0,14,1,2024-07-22 20:30:47,c42334ae11bd6e373fa9fec6f52302a2,35.151.6.129,"Mozilla/5.0 (Windows NT 10.0; Win64; x64) AppleWebKit/537.36 (KHTML, like Gecko) Chrome/126.0.0.0 Safari/537.36",WebKit,Chrome,126.0.0.0,Windows,10.0,https://app.prolific.com/,"en-US,en;q=0.9",f74fmp243,5f3af0d80bf2cb7a4b024a91,,,,,,,,"[0,1,2]",,
8828,37,html-slider-response,7,248203,0.0-7.0,14,1,2024-07-22 20:30:47,c42334ae11bd6e373fa9fec6f52302a2,35.151.6.129,"Mozilla/5.0 (Windows NT 10.0; Win64; x64) AppleWebKit/537.36 (KHTML, like Gecko) Chrome/126.0.0.0 Safari/537.36",WebKit,Chrome,126.0.0.0,Windows,10.0,https://app.prolific.com/,"en-US,en;q=0.9",f74fmp243,5f3af0d80bf2cb7a4b024a91,,,,,,<div style='display:flex; justify-content:center; align-items:center;'><img src='img/map1_bus_grass_shortest.png' style='width:600px; height:auto;' /></div>,image_trial,,50,img/map1_bus_grass_shortest.png
3939,100,html-slider-response,8,252143,0.0-8.0,14,1,2024-07-22 20:30:47,c42334ae11bd6e373fa9fec6f52302a2,35.151.6.129,"Mozilla/5.0 (Windows NT 10.0; Win64; x64) AppleWebKit/537.36 (KHTML, like Gecko) Chrome/126.0.0.0 Safari/537.36",WebKit,Chrome,126.0.0.0,Windows,10.0,https://app.prolific.com/,"en-US,en;q=0.9",f74fmp243,5f3af0d80bf2cb7a4b024a91,,,,,,<div style='display:flex; justify-content:center; align-items:center;'><img src='img/map2_hospital_sidewalk_shortest.png' style='width:600px; height:auto;' /></div>,image_trial,,50,img/map2_hospital_sidewalk_shortest.png
2608,100,html-slider-response,9,254752,0.0-9.0,14,1,2024-07-22 20:30:47,c42334ae11bd6e373fa9fec6f52302a2,35.151.6.129,"Mozilla/5.0 (Windows NT 10.0; Win64; x64) AppleWebKit/537.36 (KHTML, like Gecko) Chrome/126.0.0.0 Safari/537.36",WebKit,Chrome,126.0.0.0,Windows,10.0,https://app.prolific.com/,"en-US,en;q=0.9",f74fmp243,5f3af0d80bf2cb7a4b024a91,,,,,,<div style='display:flex; justify-content:center; align-items:center;'><img src='img/map3_bus_sidewalk_shortest.png' style='width:600px; height:auto;' /></div>,image_trial,,50,img/map3_bus_sidewalk_shortest.png
3172,39,html-slider-response,10,257925,0.0-10.0,14,1,2024-07-22 20:30:47,c42334ae11bd6e373fa9fec6f52302a2,35.151.6.129,"Mozilla/5.0 (Windows NT 10.0; Win64; x64) AppleWebKit/537.36 (KHTML, like Gecko) Chrome/126.0.0.0 Safari/537.36",WebKit,Chrome,126.0.0.0,Windows,10.0,https://app.prolific.com/,"en-US,en;q=0.9",f74fmp243,5f3af0d80bf2cb7a4b024a91,,,,,,<div style='display:flex; justify-content:center; align-items:center;'><img src='img/map1_coffee_grass_shortest.png' style='width:600px; height:auto;' /></div>,image_trial,,50,img/map1_coffee_grass_shortest.png
3367,16,html-slider-response,11,261292,0.0-11.0,14,1,2024-07-22 20:30:47,c42334ae11bd6e373fa9fec6f52302a2,35.151.6.129,"Mozilla/5.0 (Windows NT 10.0; Win64; x64) AppleWebKit/537.36 (KHTML, like Gecko) Chrome/126.0.0.0 Safari/537.36",WebKit,Chrome,126.0.0.0,Windows,10.0,https://app.prolific.com/,"en-US,en;q=0.9",f74fmp243,5f3af0d80bf2cb7a4b024a91,,,,,,<div style='display:flex; justify-content:center; align-items:center;'><img src='img/map3_bus_grass_wandering.png' style='width:600px; height:auto;' /></div>,image_trial,,50,img/map3_bus_grass_wandering.png
2297,10,html-slider-response,12,263590,0.0-12.0,14,1,2024-07-22 20:30:47,c42334ae11bd6e373fa9fec6f52302a2,35.151.6.129,"Mozilla/5.0 (Windows NT 10.0; Win64; x64) AppleWebKit/537.36 (KHTML, like Gecko) Chrome/126.0.0.0 Safari/537.36",WebKit,Chrome,126.0.0.0,Windows,10.0,https://app.prolific.com/,"en-US,en;q=0.9",f74fmp243,5f3af0d80bf2cb7a4b024a91,,,,,,<div style='display:flex; justify-content:center; align-items:center;'><img src='img/map3_coffee_grass_shortest.png' style='width:600px; height:auto;' /></div>,image_trial,,50,img/map3_coffee_grass_shortest.png
2349,15,html-slider-response,13,265940,0.0-13.0,14,1,2024-07-22 20:30:47,c42334ae11bd6e373fa9fec6f52302a2,35.151.6.129,"Mozilla/5.0 (Windows NT 10.0; Win64; x64) AppleWebKit/537.36 (KHTML, like Gecko) Chrome/126.0.0.0 Safari/537.36",WebKit,Chrome,126.0.0.0,Windows,10.0,https://app.prolific.com/,"en-US,en;q=0.9",f74fmp243,5f3af0d80bf2cb7a4b024a91,,,,,,<div style='display:flex; justify-content:center; align-items:center;'><img src='img/map2_coffee_grass_wandering.png' style='width:600px; height:auto;' /></div>,image_trial,,50,img/map2_coffee_grass_wandering.png
1864,22,html-slider-response,14,267804,0.0-14.0,14,1,2024-07-22 20:30:47,c42334ae11bd6e373fa9fec6f52302a2,35.151.6.129,"Mozilla/5.0 (Windows NT 10.0; Win64; x64) AppleWebKit/537.36 (KHTML, like Gecko) Chrome/126.0.0.0 Safari/537.36",WebKit,Chrome,126.0.0.0,Windows,10.0,https://app.prolific.com/,"en-US,en;q=0.9",f74fmp243,5f3af0d80bf2cb7a4b024a91,,,,,,<div style='display:flex; justify-content:center; align-items:center;'><img src='img/map3_bus_grass_shortest.png' style='width:600px; height:auto;' /></div>,image_trial,,50,img/map3_bus_grass_shortest.png
1660,98,html-slider-response,15,269465,0.0-15.0,14,1,2024-07-22 20:30:47,c42334ae11bd6e373fa9fec6f52302a2,35.151.6.129,"Mozilla/5.0 (Windows NT 10.0; Win64; x64) AppleWebKit/537.36 (KHTML, like Gecko) Chrome/126.0.0.0 Safari/537.36",WebKit,Chrome,126.0.0.0,Windows,10.0,https://app.prolific.com/,"en-US,en;q=0.9",f74fmp243,5f3af0d80bf2cb7a4b024a91,,,,,,<div style='display:flex; justify-content:center; align-items:center;'><img src='img/map3_coffee_sidewalk_shortest.png' style='width:600px; height:auto;' /></div>,image_trial,,50,img/map3_coffee_sidewalk_shortest.png
1776,100,html-slider-response,16,271242,0.0-16.0,14,1,2024-07-22 20:30:47,c42334ae11bd6e373fa9fec6f52302a2,35.151.6.129,"Mozilla/5.0 (Windows NT 10.0; Win64; x64) AppleWebKit/537.36 (KHTML, like Gecko) Chrome/126.0.0.0 Safari/537.36",WebKit,Chrome,126.0.0.0,Windows,10.0,https://app.prolific.com/,"en-US,en;q=0.9",f74fmp243,5f3af0d80bf2cb7a4b024a91,,,,,,<div style='display:flex; justify-content:center; align-items:center;'><img src='img/map2_bus_sidewalk_shortest.png' style='width:600px; height:auto;' /></div>,image_trial,,50,img/map2_bus_sidewalk_shortest.png
2208,100,html-slider-response,17,273451,0.0-17.0,14,1,2024-07-22 20:30:47,c42334ae11bd6e373fa9fec6f52302a2,35.151.6.129,"Mozilla/5.0 (Windows NT 10.0; Win64; x64) AppleWebKit/537.36 (KHTML, like Gecko) Chrome/126.0.0.0 Safari/537.36",WebKit,Chrome,126.0.0.0,Windows,10.0,https://app.prolific.com/,"en-US,en;q=0.9",f74fmp243,5f3af0d80bf2cb7a4b024a91,,,,,,<div style='display:flex; justify-content:center; align-items:center;'><img src='img/map1_coffee_sidewalk_shortest.png' style='width:600px; height:auto;' /></div>,image_trial,,50,img/map1_coffee_sidewalk_shortest.png
1744,30,html-slider-response,18,275196,0.0-18.0,14,1,2024-07-22 20:30:47,c42334ae11bd6e373fa9fec6f52302a2,35.151.6.129,"Mozilla/5.0 (Windows NT 10.0; Win64; x64) AppleWebKit/537.36 (KHTML, like Gecko) Chrome/126.0.0.0 Safari/537.36",WebKit,Chrome,126.0.0.0,Windows,10.0,https://app.prolific.com/,"en-US,en;q=0.9",f74fmp243,5f3af0d80bf2cb7a4b024a91,,,,,,<div style='display:flex; justify-content:center; align-items:center;'><img src='img/map2_coffee_grass_shortest.png' style='width:600px; height:auto;' /></div>,image_trial,,50,img/map2_coffee_grass_shortest.png
1711,7,html-slider-response,19,276908,0.0-19.0,14,1,2024-07-22 20:30:47,c42334ae11bd6e373fa9fec6f52302a2,35.151.6.129,"Mozilla/5.0 (Windows NT 10.0; Win64; x64) AppleWebKit/537.36 (KHTML, like Gecko) Chrome/126.0.0.0 Safari/537.36",WebKit,Chrome,126.0.0.0,Windows,10.0,https://app.prolific.com/,"en-US,en;q=0.9",f74fmp243,5f3af0d80bf2cb7a4b024a91,,,,,,<div style='display:flex; justify-content:center; align-items:center;'><img src='img/map1_bus_grass_wandering.png' style='width:600px; height:auto;' /></div>,image_trial,,50,img/map1_bus_grass_wandering.png
3693,70,html-slider-response,20,280601,0.0-20.0,14,1,2024-07-22 20:30:47,c42334ae11bd6e373fa9fec6f52302a2,35.151.6.129,"Mozilla/5.0 (Windows NT 10.0; Win64; x64) AppleWebKit/537.36 (KHTML, like Gecko) Chrome/126.0.0.0 Safari/537.36",WebKit,Chrome,126.0.0.0,Windows,10.0,https://app.prolific.com/,"en-US,en;q=0.9",f74fmp243,5f3af0d80bf2cb7a4b024a91,,,,,,<div style='display:flex; justify-content:center; align-items:center;'><img src='img/map1_hospital_grass_shortest.png' style='width:600px; height:auto;' /></div>,image_trial,,50,img/map1_hospital_grass_shortest.png
2171,64,html-slider-response,21,282773,0.0-21.0,14,1,2024-07-22 20:30:47,c42334ae11bd6e373fa9fec6f52302a2,35.151.6.129,"Mozilla/5.0 (Windows NT 10.0; Win64; x64) AppleWebKit/537.36 (KHTML, like Gecko) Chrome/126.0.0.0 Safari/537.36",WebKit,Chrome,126.0.0.0,Windows,10.0,https://app.prolific.com/,"en-US,en;q=0.9",f74fmp243,5f3af0d80bf2cb7a4b024a91,,,,,,<div style='display:flex; justify-content:center; align-items:center;'><img src='img/map2_hospital_grass_shortest.png' style='width:600px; height:auto;' /></div>,image_trial,,50,img/map2_hospital_grass_shortest.png
3446,15,html-slider-response,22,286220,0.0-22.0,14,1,2024-07-22 20:30:47,c42334ae11bd6e373fa9fec6f52302a2,35.151.6.129,"Mozilla/5.0 (Windows NT 10.0; Win64; x64) AppleWebKit/537.36 (KHTML, like Gecko) Chrome/126.0.0.0 Safari/537.36",WebKit,Chrome,126.0.0.0,Windows,10.0,https://app.prolific.com/,"en-US,en;q=0.9",f74fmp243,5f3af0d80bf2cb7a4b024a91,,,,,,<div style='display:flex; justify-content:center; align-items:center;'><img src='img/map2_bus_grass_wandering.png' style='width:600px; height:auto;' /></div>,image_trial,,50,img/map2_bus_grass_wandering.png
3290,37,html-slider-response,23,289511,0.0-23.0,14,1,2024-07-22 20:30:47,c42334ae11bd6e373fa9fec6f52302a2,35.151.6.129,"Mozilla/5.0 (Windows NT 10.0; Win64; x64) AppleWebKit/537.36 (KHTML, like Gecko) Chrome/126.0.0.0 Safari/537.36",WebKit,Chrome,126.0.0.0,Windows,10.0,https://app.prolific.com/,"en-US,en;q=0.9",f74fmp243,5f3af0d80bf2cb7a4b024a91,,,,,,<div style='display:flex; justify-content:center; align-items:center;'><img src='img/map3_hospital_grass_wandering.png' style='width:600px; height:auto;' /></div>,image_trial,,50,img/map3_hospital_grass_wandering.png
1849,25,html-slider-response,24,291362,0.0-24.0,14,1,2024-07-22 20:30:47,c42334ae11bd6e373fa9fec6f52302a2,35.151.6.129,"Mozilla/5.0 (Windows NT 10.0; Win64; x64) AppleWebKit/537.36 (KHTML, like Gecko) Chrome/126.0.0.0 Safari/537.36",WebKit,Chrome,126.0.0.0,Windows,10.0,https://app.prolific.com/,"en-US,en;q=0.9",f74fmp243,5f3af0d80bf2cb7a4b024a91,,,,,,<div style='display:flex; justify-content:center; align-items:center;'><img src='img/map1_hospital_grass_wandering.png' style='width:600px; height:auto;' /></div>,image_trial,,50,img/map1_hospital_grass_wandering.png
2749,69,html-slider-response,25,294112,0.0-25.0,14,1,2024-07-22 20:30:47,c42334ae11bd6e373fa9fec6f52302a2,35.151.6.129,"Mozilla/5.0 (Windows NT 10.0; Win64; x64) AppleWebKit/537.36 (KHTML, like Gecko) Chrome/126.0.0.0 Safari/537.36",WebKit,Chrome,126.0.0.0,Windows,10.0,https://app.prolific.com/,"en-US,en;q=0.9",f74fmp243,5f3af0d80bf2cb7a4b024a91,,,,,,<div style='display:flex; justify-content:center; align-items:center;'><img src='img/map2_coffee_sidewalk_shortest.png' style='width:600px; height:auto;' /></div>,image_trial,,50,img/map2_coffee_sidewalk_shortest.png
2314,14,html-slider-response,26,296427,0.0-26.0,14,1,2024-07-22 20:30:47,c42334ae11bd6e373fa9fec6f52302a2,35.151.6.129,"Mozilla/5.0 (Windows NT 10.0; Win64; x64) AppleWebKit/537.36 (KHTML, like Gecko) Chrome/126.0.0.0 Safari/537.36",WebKit,Chrome,126.0.0.0,Windows,10.0,https://app.prolific.com/,"en-US,en;q=0.9",f74fmp243,5f3af0d80bf2cb7a4b024a91,,,,,,<div style='display:flex; justify-content:center; align-items:center;'><img src='img/map2_hospital_grass_wandering.png' style='width:600px; height:auto;' /></div>,image_trial,,50,img/map2_hospital_grass_wandering.png
2813,76,html-slider-response,27,299241,0.0-27.0,14,1,2024-07-22 20:30:47,c42334ae11bd6e373fa9fec6f52302a2,35.151.6.129,"Mozilla/5.0 (Windows NT 10.0; Win64; x64) AppleWebKit/537.36 (KHTML, like Gecko) Chrome/126.0.0.0 Safari/537.36",WebKit,Chrome,126.0.0.0,Windows,10.0,https://app.prolific.com/,"en-US,en;q=0.9",f74fmp243,5f3af0d80bf2cb7a4b024a91,,,,,,<div style='display:flex; justify-content:center; align-items:center;'><img src='img/map1_hospital_sidewalk_shortest.png' style='width:600px; height:auto;' /></div>,image_trial,,50,img/map1_hospital_sidewalk_shortest.png
2322,7,html-slider-response,28,301564,0.0-28.0,14,1,2024-07-22 20:30:47,c42334ae11bd6e373fa9fec6f52302a2,35.151.6.129,"Mozilla/5.0 (Windows NT 10.0; Win64; x64) AppleWebKit/537.36 (KHTML, like Gecko) Chrome/126.0.0.0 Safari/537.36",WebKit,Chrome,126.0.0.0,Windows,10.0,https://app.prolific.com/,"en-US,en;q=0.9",f74fmp243,5f3af0d80bf2cb7a4b024a91,,,,,,<div style='display:flex; justify-content:center; align-items:center;'><img src='img/map1_coffee_grass_wandering.png' style='width:600px; height:auto;' /></div>,image_trial,,50,img/map1_coffee_grass_wandering.png
