rt,response,trial_type,trial_index,time_elapsed,internal_node_id,run_id,condition,recorded_at,source_code_version,ip,user_agent,device,browser,browser_version,platform,platform_version,referer,accept_language,ID,prolific_id,success,timeout,failed_images,failed_audio,failed_video,stimulus,trial_category,question_order,stimulus_name,question_text,slider_start,question
2995,"{""prolific_id"":""5f21d96867f00561a9d003cb""}",survey-text,0,3003,0.0-0.0,12,1,2024-07-18 20:05:34,5db0aa9e43fc9c8a5bdb015af86c687c,70.44.106.53,"Mozilla/5.0 (Macintosh; Intel Mac OS X 10_15_7) AppleWebKit/537.36 (KHTML, like Gecko) Chrome/126.0.0.0 Safari/537.36",Macintosh,Chrome,126.0.0.0,OS X,10_15_7,https://app.prolific.com/,"en-US,en;q=0.9",fl3ma9kwj,5f21d96867f00561a9d003cb,,,,,,,,,,,,
,,preload,1,3326,0.0-1.0,12,1,2024-07-18 20:05:34,5db0aa9e43fc9c8a5bdb015af86c687c,70.44.106.53,"Mozilla/5.0 (Macintosh; Intel Mac OS X 10_15_7) AppleWebKit/537.36 (KHTML, like Gecko) Chrome/126.0.0.0 Safari/537.36",Macintosh,Chrome,126.0.0.0,OS X,10_15_7,https://app.prolific.com/,"en-US,en;q=0.9",fl3ma9kwj,5f21d96867f00561a9d003cb,true,false,[],[],[],,,,,,,
4195, ,html-keyboard-response,2,7522,0.0-2.0,12,1,2024-07-18 20:05:34,5db0aa9e43fc9c8a5bdb015af86c687c,70.44.106.53,"Mozilla/5.0 (Macintosh; Intel Mac OS X 10_15_7) AppleWebKit/537.36 (KHTML, like Gecko) Chrome/126.0.0.0 Safari/537.36",Macintosh,Chrome,126.0.0.0,OS X,10_15_7,https://app.prolific.com/,"en-US,en;q=0.9",fl3ma9kwj,5f21d96867f00561a9d003cb,,,,,,"<p style=""text-align:center;width:700px;""> Welcome to the experiment! This study takes most people around 10 minutes to complete. Please complete it in one sitting.</p>",,,,,,
2143,y,html-keyboard-response,3,9665,0.0-3.0,12,1,2024-07-18 20:05:34,5db0aa9e43fc9c8a5bdb015af86c687c,70.44.106.53,"Mozilla/5.0 (Macintosh; Intel Mac OS X 10_15_7) AppleWebKit/537.36 (KHTML, like Gecko) Chrome/126.0.0.0 Safari/537.36",Macintosh,Chrome,126.0.0.0,OS X,10_15_7,https://app.prolific.com/,"en-US,en;q=0.9",fl3ma9kwj,5f21d96867f00561a9d003cb,,,,,,"<p style = ""font-size:16px;"">MIT Computational Cognitive Science Lab</p><h4>Press the 'y' key to consent.</h4><div style = ""background-color:#f2f2f2;""><h3>Informed Consent Form</h3><div style=""text-align:left;width:700px;""><p style = ""font-size:16px;"">In this study, you will be asked to read a set of instructions that describe a particular scenario, and you will then be asked to perform a simple task relating to that scenario. There will also be comprehension and attention checks. Participants who do not answer these checks correctly cannot be approved. In order to get credit for this study, you must read all the questions fully and answer honestly. You may only complete this study once. If you complete this study multiple times, you will be rejected.</p><p style = ""font-size:16px;"">This study is part of a MIT scientific research project. Your decision to complete this study is voluntary. There is no way for us to identify you. The only information we will have, in addition to your responses, is the time at which you completed the survey. The results of the research may be presented at scientific meetings or published in scientific journals. Pressing the ""Y"" key indicates that you are at least 18 years of age, and agree to complete this study voluntarily. Press the ""Y"" key to confirm your agreement and continue.</p></div>",,,,,,
42218,"{""instructions1"":""destinations and terrain""}",survey-text,4,51889,0.0-4.0,12,1,2024-07-18 20:05:34,5db0aa9e43fc9c8a5bdb015af86c687c,70.44.106.53,"Mozilla/5.0 (Macintosh; Intel Mac OS X 10_15_7) AppleWebKit/537.36 (KHTML, like Gecko) Chrome/126.0.0.0 Safari/537.36",Macintosh,Chrome,126.0.0.0,OS X,10_15_7,https://app.prolific.com/,"en-US,en;q=0.9",fl3ma9kwj,5f21d96867f00561a9d003cb,,,,,,,instructions,,,,,
20131,"{""instructions2"":""yes""}",survey-text,5,72022,0.0-5.0,12,1,2024-07-18 20:05:34,5db0aa9e43fc9c8a5bdb015af86c687c,70.44.106.53,"Mozilla/5.0 (Macintosh; Intel Mac OS X 10_15_7) AppleWebKit/537.36 (KHTML, like Gecko) Chrome/126.0.0.0 Safari/537.36",Macintosh,Chrome,126.0.0.0,OS X,10_15_7,https://app.prolific.com/,"en-US,en;q=0.9",fl3ma9kwj,5f21d96867f00561a9d003cb,,,,,,,instructions,,,,,
21167,"{""map_attention"":""Maps showing a small city, park, and destinations"",""squares_attention"":""Two terrains (grass and sidewalk) and three destinations (urgent care, bus stop, coffee shop)"",""answer_attention"":""Based on your own best judgment based on the map that you see, as well as your <i>own</i> common sense intuitions about towns and these kinds of destinations in general.""}",survey-multi-choice,6,93191,0.0-6.0,12,1,2024-07-18 20:05:34,5db0aa9e43fc9c8a5bdb015af86c687c,70.44.106.53,"Mozilla/5.0 (Macintosh; Intel Mac OS X 10_15_7) AppleWebKit/537.36 (KHTML, like Gecko) Chrome/126.0.0.0 Safari/537.36",Macintosh,Chrome,126.0.0.0,OS X,10_15_7,https://app.prolific.com/,"en-US,en;q=0.9",fl3ma9kwj,5f21d96867f00561a9d003cb,,,,,,,,"[0,1,2]",,,,
23638,"{""Q0"":""5""}",survey-text,7,116838,0.0-7.0,12,1,2024-07-18 20:05:34,5db0aa9e43fc9c8a5bdb015af86c687c,70.44.106.53,"Mozilla/5.0 (Macintosh; Intel Mac OS X 10_15_7) AppleWebKit/537.36 (KHTML, like Gecko) Chrome/126.0.0.0 Safari/537.36",Macintosh,Chrome,126.0.0.0,OS X,10_15_7,https://app.prolific.com/,"en-US,en;q=0.9",fl3ma9kwj,5f21d96867f00561a9d003cb,,,,,,,image_question_trial,,img/map3.png,How many people do you think will go to the urgent care center today?,,
14948,100,html-slider-response,8,131784,0.0-8.0,12,1,2024-07-18 20:05:34,5db0aa9e43fc9c8a5bdb015af86c687c,70.44.106.53,"Mozilla/5.0 (Macintosh; Intel Mac OS X 10_15_7) AppleWebKit/537.36 (KHTML, like Gecko) Chrome/126.0.0.0 Safari/537.36",Macintosh,Chrome,126.0.0.0,OS X,10_15_7,https://app.prolific.com/,"en-US,en;q=0.9",fl3ma9kwj,5f21d96867f00561a9d003cb,,,,,,"<div style='text-align:center;'><p>In this park, there is a sign which reads 'Do not walk on the grass'.</p><div style='display:flex; justify-content:center; align-items:center;'><img src='img/sign.png' style='width:140px; height:auto; margin-right:10px;' /><img src='img/map1.png' style='width:460px; height:auto;' /></div></div>",slider_trial,,img/map1.png,,50,How important is it to go to the coffee shop?
14931,51,html-slider-response,9,146714,0.0-9.0,12,1,2024-07-18 20:05:34,5db0aa9e43fc9c8a5bdb015af86c687c,70.44.106.53,"Mozilla/5.0 (Macintosh; Intel Mac OS X 10_15_7) AppleWebKit/537.36 (KHTML, like Gecko) Chrome/126.0.0.0 Safari/537.36",Macintosh,Chrome,126.0.0.0,OS X,10_15_7,https://app.prolific.com/,"en-US,en;q=0.9",fl3ma9kwj,5f21d96867f00561a9d003cb,,,,,,"<div style='text-align:center;'><p>In this park, there is a sign which reads 'Do not walk on the grass'.</p><div style='display:flex; justify-content:center; align-items:center;'><img src='img/sign.png' style='width:140px; height:auto; margin-right:10px;' /><img src='img/map1.png' style='width:460px; height:auto;' /></div></div>",slider_trial,,img/map1.png,,50,How important is it to go to the bus stop?
13964,"{""Q0"":""sad, but not the end of the world""}",survey-text,10,160682,0.0-10.0,12,1,2024-07-18 20:05:34,5db0aa9e43fc9c8a5bdb015af86c687c,70.44.106.53,"Mozilla/5.0 (Macintosh; Intel Mac OS X 10_15_7) AppleWebKit/537.36 (KHTML, like Gecko) Chrome/126.0.0.0 Safari/537.36",Macintosh,Chrome,126.0.0.0,OS X,10_15_7,https://app.prolific.com/,"en-US,en;q=0.9",fl3ma9kwj,5f21d96867f00561a9d003cb,,,,,,,image_question_trial,,img/map1.png,How bad would it be for everyone if the grass died?,,
28947,"{""Q0"":""not""}",survey-text,11,189631,0.0-11.0,12,1,2024-07-18 20:05:34,5db0aa9e43fc9c8a5bdb015af86c687c,70.44.106.53,"Mozilla/5.0 (Macintosh; Intel Mac OS X 10_15_7) AppleWebKit/537.36 (KHTML, like Gecko) Chrome/126.0.0.0 Safari/537.36",Macintosh,Chrome,126.0.0.0,OS X,10_15_7,https://app.prolific.com/,"en-US,en;q=0.9",fl3ma9kwj,5f21d96867f00561a9d003cb,,,,,,,image_question_trial,,img/map3.png,How bad would it be for everyone if the grass died?,,
10279,24,html-slider-response,12,199913,0.0-12.0,12,1,2024-07-18 20:05:34,5db0aa9e43fc9c8a5bdb015af86c687c,70.44.106.53,"Mozilla/5.0 (Macintosh; Intel Mac OS X 10_15_7) AppleWebKit/537.36 (KHTML, like Gecko) Chrome/126.0.0.0 Safari/537.36",Macintosh,Chrome,126.0.0.0,OS X,10_15_7,https://app.prolific.com/,"en-US,en;q=0.9",fl3ma9kwj,5f21d96867f00561a9d003cb,,,,,,"<div style='text-align:center;'><p>In this park, there is a sign which reads 'Do not walk on the grass'.</p><div style='display:flex; justify-content:center; align-items:center;'><img src='img/sign.png' style='width:140px; height:auto; margin-right:10px;' /><img src='img/map2.png' style='width:460px; height:auto;' /></div></div>",slider_trial,,img/map2.png,,50,How important is it to go to the bus stop?
8396,54,html-slider-response,13,208313,0.0-13.0,12,1,2024-07-18 20:05:34,5db0aa9e43fc9c8a5bdb015af86c687c,70.44.106.53,"Mozilla/5.0 (Macintosh; Intel Mac OS X 10_15_7) AppleWebKit/537.36 (KHTML, like Gecko) Chrome/126.0.0.0 Safari/537.36",Macintosh,Chrome,126.0.0.0,OS X,10_15_7,https://app.prolific.com/,"en-US,en;q=0.9",fl3ma9kwj,5f21d96867f00561a9d003cb,,,,,,"<div style='text-align:center;'><p>In this park, there is a sign which reads 'Do not walk on the grass'.</p><div style='display:flex; justify-content:center; align-items:center;'><img src='img/sign.png' style='width:140px; height:auto; margin-right:10px;' /><img src='img/map3.png' style='width:460px; height:auto;' /></div></div>",slider_trial,,img/map3.png,,50,How important is it to go to the bus stop?
8280,100,html-slider-response,14,216595,0.0-14.0,12,1,2024-07-18 20:05:34,5db0aa9e43fc9c8a5bdb015af86c687c,70.44.106.53,"Mozilla/5.0 (Macintosh; Intel Mac OS X 10_15_7) AppleWebKit/537.36 (KHTML, like Gecko) Chrome/126.0.0.0 Safari/537.36",Macintosh,Chrome,126.0.0.0,OS X,10_15_7,https://app.prolific.com/,"en-US,en;q=0.9",fl3ma9kwj,5f21d96867f00561a9d003cb,,,,,,"<div style='text-align:center;'><p>In this park, there is a sign which reads 'Do not walk on the grass'.</p><div style='display:flex; justify-content:center; align-items:center;'><img src='img/sign.png' style='width:140px; height:auto; margin-right:10px;' /><img src='img/map1.png' style='width:460px; height:auto;' /></div></div>",slider_trial,,img/map1.png,,50,How important is it to go to the urgent care center?
6563,57,html-slider-response,15,223162,0.0-15.0,12,1,2024-07-18 20:05:34,5db0aa9e43fc9c8a5bdb015af86c687c,70.44.106.53,"Mozilla/5.0 (Macintosh; Intel Mac OS X 10_15_7) AppleWebKit/537.36 (KHTML, like Gecko) Chrome/126.0.0.0 Safari/537.36",Macintosh,Chrome,126.0.0.0,OS X,10_15_7,https://app.prolific.com/,"en-US,en;q=0.9",fl3ma9kwj,5f21d96867f00561a9d003cb,,,,,,"<div style='text-align:center;'><p>In this park, there is a sign which reads 'Do not walk on the grass'.</p><div style='display:flex; justify-content:center; align-items:center;'><img src='img/sign.png' style='width:140px; height:auto; margin-right:10px;' /><img src='img/map3.png' style='width:460px; height:auto;' /></div></div>",slider_trial,,img/map3.png,,50,How important is it to go to the urgent care center?
4898,"{""Q0"":""10""}",survey-text,16,228063,0.0-16.0,12,1,2024-07-18 20:05:34,5db0aa9e43fc9c8a5bdb015af86c687c,70.44.106.53,"Mozilla/5.0 (Macintosh; Intel Mac OS X 10_15_7) AppleWebKit/537.36 (KHTML, like Gecko) Chrome/126.0.0.0 Safari/537.36",Macintosh,Chrome,126.0.0.0,OS X,10_15_7,https://app.prolific.com/,"en-US,en;q=0.9",fl3ma9kwj,5f21d96867f00561a9d003cb,,,,,,,image_question_trial,,img/map2.png,How many people do you think will go to the urgent care center today?,,
8280,"{""Q0"":""0""}",survey-text,17,236346,0.0-17.0,12,1,2024-07-18 20:05:34,5db0aa9e43fc9c8a5bdb015af86c687c,70.44.106.53,"Mozilla/5.0 (Macintosh; Intel Mac OS X 10_15_7) AppleWebKit/537.36 (KHTML, like Gecko) Chrome/126.0.0.0 Safari/537.36",Macintosh,Chrome,126.0.0.0,OS X,10_15_7,https://app.prolific.com/,"en-US,en;q=0.9",fl3ma9kwj,5f21d96867f00561a9d003cb,,,,,,,image_question_trial,,img/map2.png,What would you guess is the number of people stepping on the grass for it to die?,,
5281,"{""Q0"":""10""}",survey-text,18,241630,0.0-18.0,12,1,2024-07-18 20:05:34,5db0aa9e43fc9c8a5bdb015af86c687c,70.44.106.53,"Mozilla/5.0 (Macintosh; Intel Mac OS X 10_15_7) AppleWebKit/537.36 (KHTML, like Gecko) Chrome/126.0.0.0 Safari/537.36",Macintosh,Chrome,126.0.0.0,OS X,10_15_7,https://app.prolific.com/,"en-US,en;q=0.9",fl3ma9kwj,5f21d96867f00561a9d003cb,,,,,,,image_question_trial,,img/map3.png,How many people do you think will go to the coffee shop today?,,
6194,"{""Q0"":""50""}",survey-text,19,247828,0.0-19.0,12,1,2024-07-18 20:05:34,5db0aa9e43fc9c8a5bdb015af86c687c,70.44.106.53,"Mozilla/5.0 (Macintosh; Intel Mac OS X 10_15_7) AppleWebKit/537.36 (KHTML, like Gecko) Chrome/126.0.0.0 Safari/537.36",Macintosh,Chrome,126.0.0.0,OS X,10_15_7,https://app.prolific.com/,"en-US,en;q=0.9",fl3ma9kwj,5f21d96867f00561a9d003cb,,,,,,,image_question_trial,,img/map1.png,How many people do you think walk in this park on a single day?,,
3299,"{""Q0"":""10""}",survey-text,20,251130,0.0-20.0,12,1,2024-07-18 20:05:34,5db0aa9e43fc9c8a5bdb015af86c687c,70.44.106.53,"Mozilla/5.0 (Macintosh; Intel Mac OS X 10_15_7) AppleWebKit/537.36 (KHTML, like Gecko) Chrome/126.0.0.0 Safari/537.36",Macintosh,Chrome,126.0.0.0,OS X,10_15_7,https://app.prolific.com/,"en-US,en;q=0.9",fl3ma9kwj,5f21d96867f00561a9d003cb,,,,,,,image_question_trial,,img/map2.png,How many people do you think will go to the bus stop today?,,
8130,"{""Q0"":""so you dont kill it""}",survey-text,21,259264,0.0-21.0,12,1,2024-07-18 20:05:34,5db0aa9e43fc9c8a5bdb015af86c687c,70.44.106.53,"Mozilla/5.0 (Macintosh; Intel Mac OS X 10_15_7) AppleWebKit/537.36 (KHTML, like Gecko) Chrome/126.0.0.0 Safari/537.36",Macintosh,Chrome,126.0.0.0,OS X,10_15_7,https://app.prolific.com/,"en-US,en;q=0.9",fl3ma9kwj,5f21d96867f00561a9d003cb,,,,,,,image_question_trial,,img/map3.png,Why do you think they have this rule?,,
16863,"{""Q0"":""to not kill the grass""}",survey-text,22,276130,0.0-22.0,12,1,2024-07-18 20:05:34,5db0aa9e43fc9c8a5bdb015af86c687c,70.44.106.53,"Mozilla/5.0 (Macintosh; Intel Mac OS X 10_15_7) AppleWebKit/537.36 (KHTML, like Gecko) Chrome/126.0.0.0 Safari/537.36",Macintosh,Chrome,126.0.0.0,OS X,10_15_7,https://app.prolific.com/,"en-US,en;q=0.9",fl3ma9kwj,5f21d96867f00561a9d003cb,,,,,,,image_question_trial,,img/map1.png,Why do you think they have this rule?,,
6529,100,html-slider-response,23,282663,0.0-23.0,12,1,2024-07-18 20:05:34,5db0aa9e43fc9c8a5bdb015af86c687c,70.44.106.53,"Mozilla/5.0 (Macintosh; Intel Mac OS X 10_15_7) AppleWebKit/537.36 (KHTML, like Gecko) Chrome/126.0.0.0 Safari/537.36",Macintosh,Chrome,126.0.0.0,OS X,10_15_7,https://app.prolific.com/,"en-US,en;q=0.9",fl3ma9kwj,5f21d96867f00561a9d003cb,,,,,,"<div style='text-align:center;'><p>In this park, there is a sign which reads 'Do not walk on the grass'.</p><div style='display:flex; justify-content:center; align-items:center;'><img src='img/sign.png' style='width:140px; height:auto; margin-right:10px;' /><img src='img/map2.png' style='width:460px; height:auto;' /></div></div>",slider_trial,,img/map2.png,,50,How important is it to go to the coffee shop?
12329,"{""Q0"":""not at all. just doing his job. ""}",survey-text,24,294996,0.0-24.0,12,1,2024-07-18 20:05:34,5db0aa9e43fc9c8a5bdb015af86c687c,70.44.106.53,"Mozilla/5.0 (Macintosh; Intel Mac OS X 10_15_7) AppleWebKit/537.36 (KHTML, like Gecko) Chrome/126.0.0.0 Safari/537.36",Macintosh,Chrome,126.0.0.0,OS X,10_15_7,https://app.prolific.com/,"en-US,en;q=0.9",fl3ma9kwj,5f21d96867f00561a9d003cb,,,,,,,image_question_trial,,img/map1.png,How much do you think the sign-writer wanted the grass to stay alive?,,
4498,"{""Q0"":""50""}",survey-text,25,299497,0.0-25.0,12,1,2024-07-18 20:05:34,5db0aa9e43fc9c8a5bdb015af86c687c,70.44.106.53,"Mozilla/5.0 (Macintosh; Intel Mac OS X 10_15_7) AppleWebKit/537.36 (KHTML, like Gecko) Chrome/126.0.0.0 Safari/537.36",Macintosh,Chrome,126.0.0.0,OS X,10_15_7,https://app.prolific.com/,"en-US,en;q=0.9",fl3ma9kwj,5f21d96867f00561a9d003cb,,,,,,,image_question_trial,,img/map3.png,How many people do you think will go to the bus stop today?,,
5546,"{""Q0"":""not""}",survey-text,26,305046,0.0-26.0,12,1,2024-07-18 20:05:34,5db0aa9e43fc9c8a5bdb015af86c687c,70.44.106.53,"Mozilla/5.0 (Macintosh; Intel Mac OS X 10_15_7) AppleWebKit/537.36 (KHTML, like Gecko) Chrome/126.0.0.0 Safari/537.36",Macintosh,Chrome,126.0.0.0,OS X,10_15_7,https://app.prolific.com/,"en-US,en;q=0.9",fl3ma9kwj,5f21d96867f00561a9d003cb,,,,,,,image_question_trial,,img/map2.png,How bad would it be for everyone if the grass died?,,
3497,"{""Q0"":""100""}",survey-text,27,308547,0.0-27.0,12,1,2024-07-18 20:05:34,5db0aa9e43fc9c8a5bdb015af86c687c,70.44.106.53,"Mozilla/5.0 (Macintosh; Intel Mac OS X 10_15_7) AppleWebKit/537.36 (KHTML, like Gecko) Chrome/126.0.0.0 Safari/537.36",Macintosh,Chrome,126.0.0.0,OS X,10_15_7,https://app.prolific.com/,"en-US,en;q=0.9",fl3ma9kwj,5f21d96867f00561a9d003cb,,,,,,,image_question_trial,,img/map2.png,How many people do you think walk in this park on a single day?,,
26311,"{""Q0"":""a person from the community who doesnt visit the park""}",survey-text,28,334861,0.0-28.0,12,1,2024-07-18 20:05:34,5db0aa9e43fc9c8a5bdb015af86c687c,70.44.106.53,"Mozilla/5.0 (Macintosh; Intel Mac OS X 10_15_7) AppleWebKit/537.36 (KHTML, like Gecko) Chrome/126.0.0.0 Safari/537.36",Macintosh,Chrome,126.0.0.0,OS X,10_15_7,https://app.prolific.com/,"en-US,en;q=0.9",fl3ma9kwj,5f21d96867f00561a9d003cb,,,,,,,image_question_trial,,img/map3.png,Who do you think is most likely wrote the sign with the rule? A council member who polled the community and measured and analyzed the traffic at the park? A person randomly selected from the community? A person from the community who doesn't really visit the park? Or someone else?,,
3682,"{""Q0"":""50""}",survey-text,29,338546,0.0-29.0,12,1,2024-07-18 20:05:34,5db0aa9e43fc9c8a5bdb015af86c687c,70.44.106.53,"Mozilla/5.0 (Macintosh; Intel Mac OS X 10_15_7) AppleWebKit/537.36 (KHTML, like Gecko) Chrome/126.0.0.0 Safari/537.36",Macintosh,Chrome,126.0.0.0,OS X,10_15_7,https://app.prolific.com/,"en-US,en;q=0.9",fl3ma9kwj,5f21d96867f00561a9d003cb,,,,,,,image_question_trial,,img/map1.png,How many people do you think will go to the coffee shop today?,,
8198,"{""Q0"":""none""}",survey-text,30,346747,0.0-30.0,12,1,2024-07-18 20:05:34,5db0aa9e43fc9c8a5bdb015af86c687c,70.44.106.53,"Mozilla/5.0 (Macintosh; Intel Mac OS X 10_15_7) AppleWebKit/537.36 (KHTML, like Gecko) Chrome/126.0.0.0 Safari/537.36",Macintosh,Chrome,126.0.0.0,OS X,10_15_7,https://app.prolific.com/,"en-US,en;q=0.9",fl3ma9kwj,5f21d96867f00561a9d003cb,,,,,,,image_question_trial,,img/map2.png,How much do you think the sign-writer wanted the grass to stay alive?,,
4844,"{""Q0"":""10""}",survey-text,31,351595,0.0-31.0,12,1,2024-07-18 20:05:34,5db0aa9e43fc9c8a5bdb015af86c687c,70.44.106.53,"Mozilla/5.0 (Macintosh; Intel Mac OS X 10_15_7) AppleWebKit/537.36 (KHTML, like Gecko) Chrome/126.0.0.0 Safari/537.36",Macintosh,Chrome,126.0.0.0,OS X,10_15_7,https://app.prolific.com/,"en-US,en;q=0.9",fl3ma9kwj,5f21d96867f00561a9d003cb,,,,,,,image_question_trial,,img/map1.png,How many people do you think will go to the urgent care center today?,,
3714,"{""Q0"":""100""}",survey-text,32,355313,0.0-32.0,12,1,2024-07-18 20:05:34,5db0aa9e43fc9c8a5bdb015af86c687c,70.44.106.53,"Mozilla/5.0 (Macintosh; Intel Mac OS X 10_15_7) AppleWebKit/537.36 (KHTML, like Gecko) Chrome/126.0.0.0 Safari/537.36",Macintosh,Chrome,126.0.0.0,OS X,10_15_7,https://app.prolific.com/,"en-US,en;q=0.9",fl3ma9kwj,5f21d96867f00561a9d003cb,,,,,,,image_question_trial,,img/map3.png,How many people do you think walk in this park on a single day?,,
3296,"{""Q0"":""15""}",survey-text,33,358612,0.0-33.0,12,1,2024-07-18 20:05:34,5db0aa9e43fc9c8a5bdb015af86c687c,70.44.106.53,"Mozilla/5.0 (Macintosh; Intel Mac OS X 10_15_7) AppleWebKit/537.36 (KHTML, like Gecko) Chrome/126.0.0.0 Safari/537.36",Macintosh,Chrome,126.0.0.0,OS X,10_15_7,https://app.prolific.com/,"en-US,en;q=0.9",fl3ma9kwj,5f21d96867f00561a9d003cb,,,,,,,image_question_trial,,img/map1.png,How many people do you think will go to the bus stop today?,,
24713,"{""Q0"":"" A person from the community who doesn't really visit the park""}",survey-text,34,383330,0.0-34.0,12,1,2024-07-18 20:05:34,5db0aa9e43fc9c8a5bdb015af86c687c,70.44.106.53,"Mozilla/5.0 (Macintosh; Intel Mac OS X 10_15_7) AppleWebKit/537.36 (KHTML, like Gecko) Chrome/126.0.0.0 Safari/537.36",Macintosh,Chrome,126.0.0.0,OS X,10_15_7,https://app.prolific.com/,"en-US,en;q=0.9",fl3ma9kwj,5f21d96867f00561a9d003cb,,,,,,,image_question_trial,,img/map2.png,Who do you think is most likely wrote the sign with the rule? A council member who polled the community and measured and analyzed the traffic at the park? A person randomly selected from the community? A person from the community who doesn't really visit the park? Or someone else?,,
3712,"{""Q0"":""100""}",survey-text,35,387045,0.0-35.0,12,1,2024-07-18 20:05:34,5db0aa9e43fc9c8a5bdb015af86c687c,70.44.106.53,"Mozilla/5.0 (Macintosh; Intel Mac OS X 10_15_7) AppleWebKit/537.36 (KHTML, like Gecko) Chrome/126.0.0.0 Safari/537.36",Macintosh,Chrome,126.0.0.0,OS X,10_15_7,https://app.prolific.com/,"en-US,en;q=0.9",fl3ma9kwj,5f21d96867f00561a9d003cb,,,,,,,image_question_trial,,img/map2.png,How many people do you think will go to the coffee shop today?,,
5046,"{""Q0"":""none""}",survey-text,36,392095,0.0-36.0,12,1,2024-07-18 20:05:34,5db0aa9e43fc9c8a5bdb015af86c687c,70.44.106.53,"Mozilla/5.0 (Macintosh; Intel Mac OS X 10_15_7) AppleWebKit/537.36 (KHTML, like Gecko) Chrome/126.0.0.0 Safari/537.36",Macintosh,Chrome,126.0.0.0,OS X,10_15_7,https://app.prolific.com/,"en-US,en;q=0.9",fl3ma9kwj,5f21d96867f00561a9d003cb,,,,,,,image_question_trial,,img/map3.png,How much do you think the sign-writer wanted the grass to stay alive?,,
8364,"{""Q0"":""A person randomly selected from the community""}",survey-text,37,400463,0.0-37.0,12,1,2024-07-18 20:05:34,5db0aa9e43fc9c8a5bdb015af86c687c,70.44.106.53,"Mozilla/5.0 (Macintosh; Intel Mac OS X 10_15_7) AppleWebKit/537.36 (KHTML, like Gecko) Chrome/126.0.0.0 Safari/537.36",Macintosh,Chrome,126.0.0.0,OS X,10_15_7,https://app.prolific.com/,"en-US,en;q=0.9",fl3ma9kwj,5f21d96867f00561a9d003cb,,,,,,,image_question_trial,,img/map1.png,Who do you think is most likely wrote the sign with the rule? A council member who polled the community and measured and analyzed the traffic at the park? A person randomly selected from the community? A person from the community who doesn't really visit the park? Or someone else?,,
7093,"{""Q0"":""to not kill the grass\n""}",survey-text,38,407561,0.0-38.0,12,1,2024-07-18 20:05:34,5db0aa9e43fc9c8a5bdb015af86c687c,70.44.106.53,"Mozilla/5.0 (Macintosh; Intel Mac OS X 10_15_7) AppleWebKit/537.36 (KHTML, like Gecko) Chrome/126.0.0.0 Safari/537.36",Macintosh,Chrome,126.0.0.0,OS X,10_15_7,https://app.prolific.com/,"en-US,en;q=0.9",fl3ma9kwj,5f21d96867f00561a9d003cb,,,,,,,image_question_trial,,img/map2.png,Why do you think they have this rule?,,
4431,"{""Q0"":""500""}",survey-text,39,411997,0.0-39.0,12,1,2024-07-18 20:05:34,5db0aa9e43fc9c8a5bdb015af86c687c,70.44.106.53,"Mozilla/5.0 (Macintosh; Intel Mac OS X 10_15_7) AppleWebKit/537.36 (KHTML, like Gecko) Chrome/126.0.0.0 Safari/537.36",Macintosh,Chrome,126.0.0.0,OS X,10_15_7,https://app.prolific.com/,"en-US,en;q=0.9",fl3ma9kwj,5f21d96867f00561a9d003cb,,,,,,,image_question_trial,,img/map1.png,What would you guess is the number of people stepping on the grass for it to die?,,
3994,75,html-slider-response,40,415995,0.0-40.0,12,1,2024-07-18 20:05:34,5db0aa9e43fc9c8a5bdb015af86c687c,70.44.106.53,"Mozilla/5.0 (Macintosh; Intel Mac OS X 10_15_7) AppleWebKit/537.36 (KHTML, like Gecko) Chrome/126.0.0.0 Safari/537.36",Macintosh,Chrome,126.0.0.0,OS X,10_15_7,https://app.prolific.com/,"en-US,en;q=0.9",fl3ma9kwj,5f21d96867f00561a9d003cb,,,,,,"<div style='text-align:center;'><p>In this park, there is a sign which reads 'Do not walk on the grass'.</p><div style='display:flex; justify-content:center; align-items:center;'><img src='img/sign.png' style='width:140px; height:auto; margin-right:10px;' /><img src='img/map2.png' style='width:460px; height:auto;' /></div></div>",slider_trial,,img/map2.png,,50,How important is it to go to the urgent care center?
5445,76,html-slider-response,41,421445,0.0-41.0,12,1,2024-07-18 20:05:34,5db0aa9e43fc9c8a5bdb015af86c687c,70.44.106.53,"Mozilla/5.0 (Macintosh; Intel Mac OS X 10_15_7) AppleWebKit/537.36 (KHTML, like Gecko) Chrome/126.0.0.0 Safari/537.36",Macintosh,Chrome,126.0.0.0,OS X,10_15_7,https://app.prolific.com/,"en-US,en;q=0.9",fl3ma9kwj,5f21d96867f00561a9d003cb,,,,,,"<div style='text-align:center;'><p>In this park, there is a sign which reads 'Do not walk on the grass'.</p><div style='display:flex; justify-content:center; align-items:center;'><img src='img/sign.png' style='width:140px; height:auto; margin-right:10px;' /><img src='img/map3.png' style='width:460px; height:auto;' /></div></div>",slider_trial,,img/map3.png,,50,How important is it to go to the coffee shop?
3496,"{""Q0"":""50""}",survey-text,42,424945,0.0-42.0,12,1,2024-07-18 20:05:34,5db0aa9e43fc9c8a5bdb015af86c687c,70.44.106.53,"Mozilla/5.0 (Macintosh; Intel Mac OS X 10_15_7) AppleWebKit/537.36 (KHTML, like Gecko) Chrome/126.0.0.0 Safari/537.36",Macintosh,Chrome,126.0.0.0,OS X,10_15_7,https://app.prolific.com/,"en-US,en;q=0.9",fl3ma9kwj,5f21d96867f00561a9d003cb,,,,,,,image_question_trial,,img/map3.png,What would you guess is the number of people stepping on the grass for it to die?,,
19864,"[{""name"":""understand"",""value"":""yes""},{""name"":""problems"",""value"":""no""},{""name"":""age"",""value"":""38""},{""name"":""gender"",""value"":""female""},{""name"":""comments"",""value"":""This didn't make any sense to me at all. ""}]",survey-html-form,43,444811,0.0-43.0,12,1,2024-07-18 20:05:34,5db0aa9e43fc9c8a5bdb015af86c687c,70.44.106.53,"Mozilla/5.0 (Macintosh; Intel Mac OS X 10_15_7) AppleWebKit/537.36 (KHTML, like Gecko) Chrome/126.0.0.0 Safari/537.36",Macintosh,Chrome,126.0.0.0,OS X,10_15_7,https://app.prolific.com/,"en-US,en;q=0.9",fl3ma9kwj,5f21d96867f00561a9d003cb,,,,,,,debrief,,,,,
4690,"{""Q0"":""fl3ma9kwj""}",survey-text,44,449506,0.0-44.0,12,1,2024-07-18 20:05:34,5db0aa9e43fc9c8a5bdb015af86c687c,70.44.106.53,"Mozilla/5.0 (Macintosh; Intel Mac OS X 10_15_7) AppleWebKit/537.36 (KHTML, like Gecko) Chrome/126.0.0.0 Safari/537.36",Macintosh,Chrome,126.0.0.0,OS X,10_15_7,https://app.prolific.com/,"en-US,en;q=0.9",fl3ma9kwj,5f21d96867f00561a9d003cb,,,,,,,,,,,,
24704,"{""prolific_id"":""66967c5af3c4c0d13cb52db1""}",survey-text,0,24718,0.0-0.0,1,1,2024-07-18 20:01:09,5db0aa9e43fc9c8a5bdb015af86c687c,107.180.172.214,"Mozilla/5.0 (Windows NT 10.0; Win64; x64) AppleWebKit/537.36 (KHTML, like Gecko) Chrome/126.0.0.0 Safari/537.36",WebKit,Chrome,126.0.0.0,Windows,10.0,https://app.prolific.com/,"en-US,en;q=0.9",g9motuh7j,66967c5af3c4c0d13cb52db1,,,,,,,,,,,,
,,preload,1,28523,0.0-1.0,1,1,2024-07-18 20:01:09,5db0aa9e43fc9c8a5bdb015af86c687c,107.180.172.214,"Mozilla/5.0 (Windows NT 10.0; Win64; x64) AppleWebKit/537.36 (KHTML, like Gecko) Chrome/126.0.0.0 Safari/537.36",WebKit,Chrome,126.0.0.0,Windows,10.0,https://app.prolific.com/,"en-US,en;q=0.9",g9motuh7j,66967c5af3c4c0d13cb52db1,true,false,[],[],[],,,,,,,
12863, ,html-keyboard-response,2,41387,0.0-2.0,1,1,2024-07-18 20:01:09,5db0aa9e43fc9c8a5bdb015af86c687c,107.180.172.214,"Mozilla/5.0 (Windows NT 10.0; Win64; x64) AppleWebKit/537.36 (KHTML, like Gecko) Chrome/126.0.0.0 Safari/537.36",WebKit,Chrome,126.0.0.0,Windows,10.0,https://app.prolific.com/,"en-US,en;q=0.9",g9motuh7j,66967c5af3c4c0d13cb52db1,,,,,,"<p style=""text-align:center;width:700px;""> Welcome to the experiment! This study takes most people around 10 minutes to complete. Please complete it in one sitting.</p>",,,,,,
2650,y,html-keyboard-response,3,44039,0.0-3.0,1,1,2024-07-18 20:01:09,5db0aa9e43fc9c8a5bdb015af86c687c,107.180.172.214,"Mozilla/5.0 (Windows NT 10.0; Win64; x64) AppleWebKit/537.36 (KHTML, like Gecko) Chrome/126.0.0.0 Safari/537.36",WebKit,Chrome,126.0.0.0,Windows,10.0,https://app.prolific.com/,"en-US,en;q=0.9",g9motuh7j,66967c5af3c4c0d13cb52db1,,,,,,"<p style = ""font-size:16px;"">MIT Computational Cognitive Science Lab</p><h4>Press the 'y' key to consent.</h4><div style = ""background-color:#f2f2f2;""><h3>Informed Consent Form</h3><div style=""text-align:left;width:700px;""><p style = ""font-size:16px;"">In this study, you will be asked to read a set of instructions that describe a particular scenario, and you will then be asked to perform a simple task relating to that scenario. There will also be comprehension and attention checks. Participants who do not answer these checks correctly cannot be approved. In order to get credit for this study, you must read all the questions fully and answer honestly. You may only complete this study once. If you complete this study multiple times, you will be rejected.</p><p style = ""font-size:16px;"">This study is part of a MIT scientific research project. Your decision to complete this study is voluntary. There is no way for us to identify you. The only information we will have, in addition to your responses, is the time at which you completed the survey. The results of the research may be presented at scientific meetings or published in scientific journals. Pressing the ""Y"" key indicates that you are at least 18 years of age, and agree to complete this study voluntarily. Press the ""Y"" key to confirm your agreement and continue.</p></div>",,,,,,
31185,"{""instructions1"":""PARK""}",survey-text,4,75238,0.0-4.0,1,1,2024-07-18 20:01:09,5db0aa9e43fc9c8a5bdb015af86c687c,107.180.172.214,"Mozilla/5.0 (Windows NT 10.0; Win64; x64) AppleWebKit/537.36 (KHTML, like Gecko) Chrome/126.0.0.0 Safari/537.36",WebKit,Chrome,126.0.0.0,Windows,10.0,https://app.prolific.com/,"en-US,en;q=0.9",g9motuh7j,66967c5af3c4c0d13cb52db1,,,,,,,instructions,,,,,
11617,"{""instructions2"":""YES""}",survey-text,5,86860,0.0-5.0,1,1,2024-07-18 20:01:09,5db0aa9e43fc9c8a5bdb015af86c687c,107.180.172.214,"Mozilla/5.0 (Windows NT 10.0; Win64; x64) AppleWebKit/537.36 (KHTML, like Gecko) Chrome/126.0.0.0 Safari/537.36",WebKit,Chrome,126.0.0.0,Windows,10.0,https://app.prolific.com/,"en-US,en;q=0.9",g9motuh7j,66967c5af3c4c0d13cb52db1,,,,,,,instructions,,,,,
36847,"{""map_attention"":""Maps showing a small city, park, and destinations"",""squares_attention"":""Two terrains (grass and sidewalk) and three destinations (urgent care, bus stop, coffee shop)"",""answer_attention"":""Based on your own best judgment based on the map that you see, as well as your <i>own</i> common sense intuitions about towns and these kinds of destinations in general.""}",survey-multi-choice,6,123709,0.0-6.0,1,1,2024-07-18 20:01:09,5db0aa9e43fc9c8a5bdb015af86c687c,107.180.172.214,"Mozilla/5.0 (Windows NT 10.0; Win64; x64) AppleWebKit/537.36 (KHTML, like Gecko) Chrome/126.0.0.0 Safari/537.36",WebKit,Chrome,126.0.0.0,Windows,10.0,https://app.prolific.com/,"en-US,en;q=0.9",g9motuh7j,66967c5af3c4c0d13cb52db1,,,,,,,,"[0,1,2]",,,,
46946,"{""Q0"":""A council member who polled the community and measured and analyzed the traffic at the park""}",survey-text,7,170663,0.0-7.0,1,1,2024-07-18 20:01:09,5db0aa9e43fc9c8a5bdb015af86c687c,107.180.172.214,"Mozilla/5.0 (Windows NT 10.0; Win64; x64) AppleWebKit/537.36 (KHTML, like Gecko) Chrome/126.0.0.0 Safari/537.36",WebKit,Chrome,126.0.0.0,Windows,10.0,https://app.prolific.com/,"en-US,en;q=0.9",g9motuh7j,66967c5af3c4c0d13cb52db1,,,,,,,image_question_trial,,img/map3.png,Who do you think is most likely wrote the sign with the rule? A council member who polled the community and measured and analyzed the traffic at the park? A person randomly selected from the community? A person from the community who doesn't really visit the park? Or someone else?,,
14906,100,html-slider-response,8,185572,0.0-8.0,1,1,2024-07-18 20:01:09,5db0aa9e43fc9c8a5bdb015af86c687c,107.180.172.214,"Mozilla/5.0 (Windows NT 10.0; Win64; x64) AppleWebKit/537.36 (KHTML, like Gecko) Chrome/126.0.0.0 Safari/537.36",WebKit,Chrome,126.0.0.0,Windows,10.0,https://app.prolific.com/,"en-US,en;q=0.9",g9motuh7j,66967c5af3c4c0d13cb52db1,,,,,,"<div style='text-align:center;'><p>In this park, there is a sign which reads 'Do not walk on the grass'.</p><div style='display:flex; justify-content:center; align-items:center;'><img src='img/sign.png' style='width:140px; height:auto; margin-right:10px;' /><img src='img/map2.png' style='width:460px; height:auto;' /></div></div>",slider_trial,,img/map2.png,,50,How important is it to go to the urgent care center?
53764,"{""Q0"":""20""}",survey-text,9,239339,0.0-9.0,1,1,2024-07-18 20:01:09,5db0aa9e43fc9c8a5bdb015af86c687c,107.180.172.214,"Mozilla/5.0 (Windows NT 10.0; Win64; x64) AppleWebKit/537.36 (KHTML, like Gecko) Chrome/126.0.0.0 Safari/537.36",WebKit,Chrome,126.0.0.0,Windows,10.0,https://app.prolific.com/,"en-US,en;q=0.9",g9motuh7j,66967c5af3c4c0d13cb52db1,,,,,,,image_question_trial,,img/map1.png,How many people do you think will go to the bus stop today?,,
5378,100,html-slider-response,10,244719,0.0-10.0,1,1,2024-07-18 20:01:09,5db0aa9e43fc9c8a5bdb015af86c687c,107.180.172.214,"Mozilla/5.0 (Windows NT 10.0; Win64; x64) AppleWebKit/537.36 (KHTML, like Gecko) Chrome/126.0.0.0 Safari/537.36",WebKit,Chrome,126.0.0.0,Windows,10.0,https://app.prolific.com/,"en-US,en;q=0.9",g9motuh7j,66967c5af3c4c0d13cb52db1,,,,,,"<div style='text-align:center;'><p>In this park, there is a sign which reads 'Do not walk on the grass'.</p><div style='display:flex; justify-content:center; align-items:center;'><img src='img/sign.png' style='width:140px; height:auto; margin-right:10px;' /><img src='img/map3.png' style='width:460px; height:auto;' /></div></div>",slider_trial,,img/map3.png,,50,How important is it to go to the coffee shop?
17540,"{""Q0"":""500""}",survey-text,11,262261,0.0-11.0,1,1,2024-07-18 20:01:09,5db0aa9e43fc9c8a5bdb015af86c687c,107.180.172.214,"Mozilla/5.0 (Windows NT 10.0; Win64; x64) AppleWebKit/537.36 (KHTML, like Gecko) Chrome/126.0.0.0 Safari/537.36",WebKit,Chrome,126.0.0.0,Windows,10.0,https://app.prolific.com/,"en-US,en;q=0.9",g9motuh7j,66967c5af3c4c0d13cb52db1,,,,,,,image_question_trial,,img/map2.png,What would you guess is the number of people stepping on the grass for it to die?,,
9349,"{""Q0"":""5""}",survey-text,12,271614,0.0-12.0,1,1,2024-07-18 20:01:09,5db0aa9e43fc9c8a5bdb015af86c687c,107.180.172.214,"Mozilla/5.0 (Windows NT 10.0; Win64; x64) AppleWebKit/537.36 (KHTML, like Gecko) Chrome/126.0.0.0 Safari/537.36",WebKit,Chrome,126.0.0.0,Windows,10.0,https://app.prolific.com/,"en-US,en;q=0.9",g9motuh7j,66967c5af3c4c0d13cb52db1,,,,,,,image_question_trial,,img/map2.png,How many people do you think walk in this park on a single day?,,
7931,"{""Q0"":""20""}",survey-text,13,279552,0.0-13.0,1,1,2024-07-18 20:01:09,5db0aa9e43fc9c8a5bdb015af86c687c,107.180.172.214,"Mozilla/5.0 (Windows NT 10.0; Win64; x64) AppleWebKit/537.36 (KHTML, like Gecko) Chrome/126.0.0.0 Safari/537.36",WebKit,Chrome,126.0.0.0,Windows,10.0,https://app.prolific.com/,"en-US,en;q=0.9",g9motuh7j,66967c5af3c4c0d13cb52db1,,,,,,,image_question_trial,,img/map1.png,How many people do you think will go to the urgent care center today?,,
6833,100,html-slider-response,14,286388,0.0-14.0,1,1,2024-07-18 20:01:09,5db0aa9e43fc9c8a5bdb015af86c687c,107.180.172.214,"Mozilla/5.0 (Windows NT 10.0; Win64; x64) AppleWebKit/537.36 (KHTML, like Gecko) Chrome/126.0.0.0 Safari/537.36",WebKit,Chrome,126.0.0.0,Windows,10.0,https://app.prolific.com/,"en-US,en;q=0.9",g9motuh7j,66967c5af3c4c0d13cb52db1,,,,,,"<div style='text-align:center;'><p>In this park, there is a sign which reads 'Do not walk on the grass'.</p><div style='display:flex; justify-content:center; align-items:center;'><img src='img/sign.png' style='width:140px; height:auto; margin-right:10px;' /><img src='img/map3.png' style='width:460px; height:auto;' /></div></div>",slider_trial,,img/map3.png,,50,How important is it to go to the bus stop?
3390,100,html-slider-response,15,289780,0.0-15.0,1,1,2024-07-18 20:01:09,5db0aa9e43fc9c8a5bdb015af86c687c,107.180.172.214,"Mozilla/5.0 (Windows NT 10.0; Win64; x64) AppleWebKit/537.36 (KHTML, like Gecko) Chrome/126.0.0.0 Safari/537.36",WebKit,Chrome,126.0.0.0,Windows,10.0,https://app.prolific.com/,"en-US,en;q=0.9",g9motuh7j,66967c5af3c4c0d13cb52db1,,,,,,"<div style='text-align:center;'><p>In this park, there is a sign which reads 'Do not walk on the grass'.</p><div style='display:flex; justify-content:center; align-items:center;'><img src='img/sign.png' style='width:140px; height:auto; margin-right:10px;' /><img src='img/map3.png' style='width:460px; height:auto;' /></div></div>",slider_trial,,img/map3.png,,50,How important is it to go to the urgent care center?
16714,"{""Q0"":""30""}",survey-text,16,306496,0.0-16.0,1,1,2024-07-18 20:01:09,5db0aa9e43fc9c8a5bdb015af86c687c,107.180.172.214,"Mozilla/5.0 (Windows NT 10.0; Win64; x64) AppleWebKit/537.36 (KHTML, like Gecko) Chrome/126.0.0.0 Safari/537.36",WebKit,Chrome,126.0.0.0,Windows,10.0,https://app.prolific.com/,"en-US,en;q=0.9",g9motuh7j,66967c5af3c4c0d13cb52db1,,,,,,,image_question_trial,,img/map3.png,How many people do you think walk in this park on a single day?,,
20567,"{""Q0"":""100""}",survey-text,17,327065,0.0-17.0,1,1,2024-07-18 20:01:09,5db0aa9e43fc9c8a5bdb015af86c687c,107.180.172.214,"Mozilla/5.0 (Windows NT 10.0; Win64; x64) AppleWebKit/537.36 (KHTML, like Gecko) Chrome/126.0.0.0 Safari/537.36",WebKit,Chrome,126.0.0.0,Windows,10.0,https://app.prolific.com/,"en-US,en;q=0.9",g9motuh7j,66967c5af3c4c0d13cb52db1,,,,,,,image_question_trial,,img/map3.png,How much do you think the sign-writer wanted the grass to stay alive?,,
10166,"{""Q0"":""very bad""}",survey-text,18,337234,0.0-18.0,1,1,2024-07-18 20:01:09,5db0aa9e43fc9c8a5bdb015af86c687c,107.180.172.214,"Mozilla/5.0 (Windows NT 10.0; Win64; x64) AppleWebKit/537.36 (KHTML, like Gecko) Chrome/126.0.0.0 Safari/537.36",WebKit,Chrome,126.0.0.0,Windows,10.0,https://app.prolific.com/,"en-US,en;q=0.9",g9motuh7j,66967c5af3c4c0d13cb52db1,,,,,,,image_question_trial,,img/map2.png,How bad would it be for everyone if the grass died?,,
15975,"{""Q0"":""To save the grasses""}",survey-text,19,353214,0.0-19.0,1,1,2024-07-18 20:01:09,5db0aa9e43fc9c8a5bdb015af86c687c,107.180.172.214,"Mozilla/5.0 (Windows NT 10.0; Win64; x64) AppleWebKit/537.36 (KHTML, like Gecko) Chrome/126.0.0.0 Safari/537.36",WebKit,Chrome,126.0.0.0,Windows,10.0,https://app.prolific.com/,"en-US,en;q=0.9",g9motuh7j,66967c5af3c4c0d13cb52db1,,,,,,,image_question_trial,,img/map1.png,Why do you think they have this rule?,,
11086,"{""Q0"":""very much""}",survey-text,20,364303,0.0-20.0,1,1,2024-07-18 20:01:09,5db0aa9e43fc9c8a5bdb015af86c687c,107.180.172.214,"Mozilla/5.0 (Windows NT 10.0; Win64; x64) AppleWebKit/537.36 (KHTML, like Gecko) Chrome/126.0.0.0 Safari/537.36",WebKit,Chrome,126.0.0.0,Windows,10.0,https://app.prolific.com/,"en-US,en;q=0.9",g9motuh7j,66967c5af3c4c0d13cb52db1,,,,,,,image_question_trial,,img/map1.png,How much do you think the sign-writer wanted the grass to stay alive?,,
7082,"{""Q0"":""20""}",survey-text,21,371388,0.0-21.0,1,1,2024-07-18 20:01:09,5db0aa9e43fc9c8a5bdb015af86c687c,107.180.172.214,"Mozilla/5.0 (Windows NT 10.0; Win64; x64) AppleWebKit/537.36 (KHTML, like Gecko) Chrome/126.0.0.0 Safari/537.36",WebKit,Chrome,126.0.0.0,Windows,10.0,https://app.prolific.com/,"en-US,en;q=0.9",g9motuh7j,66967c5af3c4c0d13cb52db1,,,,,,,image_question_trial,,img/map3.png,How many people do you think will go to the urgent care center today?,,
3972,100,html-slider-response,22,375362,0.0-22.0,1,1,2024-07-18 20:01:09,5db0aa9e43fc9c8a5bdb015af86c687c,107.180.172.214,"Mozilla/5.0 (Windows NT 10.0; Win64; x64) AppleWebKit/537.36 (KHTML, like Gecko) Chrome/126.0.0.0 Safari/537.36",WebKit,Chrome,126.0.0.0,Windows,10.0,https://app.prolific.com/,"en-US,en;q=0.9",g9motuh7j,66967c5af3c4c0d13cb52db1,,,,,,"<div style='text-align:center;'><p>In this park, there is a sign which reads 'Do not walk on the grass'.</p><div style='display:flex; justify-content:center; align-items:center;'><img src='img/sign.png' style='width:140px; height:auto; margin-right:10px;' /><img src='img/map2.png' style='width:460px; height:auto;' /></div></div>",slider_trial,,img/map2.png,,50,How important is it to go to the coffee shop?
14339,"{""Q0"":""A council member who polled the community and measured and analyzed the traffic at the park""}",survey-text,23,389705,0.0-23.0,1,1,2024-07-18 20:01:09,5db0aa9e43fc9c8a5bdb015af86c687c,107.180.172.214,"Mozilla/5.0 (Windows NT 10.0; Win64; x64) AppleWebKit/537.36 (KHTML, like Gecko) Chrome/126.0.0.0 Safari/537.36",WebKit,Chrome,126.0.0.0,Windows,10.0,https://app.prolific.com/,"en-US,en;q=0.9",g9motuh7j,66967c5af3c4c0d13cb52db1,,,,,,,image_question_trial,,img/map1.png,Who do you think is most likely wrote the sign with the rule? A council member who polled the community and measured and analyzed the traffic at the park? A person randomly selected from the community? A person from the community who doesn't really visit the park? Or someone else?,,
3537,100,html-slider-response,24,393243,0.0-24.0,1,1,2024-07-18 20:01:09,5db0aa9e43fc9c8a5bdb015af86c687c,107.180.172.214,"Mozilla/5.0 (Windows NT 10.0; Win64; x64) AppleWebKit/537.36 (KHTML, like Gecko) Chrome/126.0.0.0 Safari/537.36",WebKit,Chrome,126.0.0.0,Windows,10.0,https://app.prolific.com/,"en-US,en;q=0.9",g9motuh7j,66967c5af3c4c0d13cb52db1,,,,,,"<div style='text-align:center;'><p>In this park, there is a sign which reads 'Do not walk on the grass'.</p><div style='display:flex; justify-content:center; align-items:center;'><img src='img/sign.png' style='width:140px; height:auto; margin-right:10px;' /><img src='img/map1.png' style='width:460px; height:auto;' /></div></div>",slider_trial,,img/map1.png,,50,How important is it to go to the coffee shop?
9626,"{""Q0"":""200""}",survey-text,25,402873,0.0-25.0,1,1,2024-07-18 20:01:09,5db0aa9e43fc9c8a5bdb015af86c687c,107.180.172.214,"Mozilla/5.0 (Windows NT 10.0; Win64; x64) AppleWebKit/537.36 (KHTML, like Gecko) Chrome/126.0.0.0 Safari/537.36",WebKit,Chrome,126.0.0.0,Windows,10.0,https://app.prolific.com/,"en-US,en;q=0.9",g9motuh7j,66967c5af3c4c0d13cb52db1,,,,,,,image_question_trial,,img/map3.png,What would you guess is the number of people stepping on the grass for it to die?,,
13009,100,html-slider-response,26,415884,0.0-26.0,1,1,2024-07-18 20:01:09,5db0aa9e43fc9c8a5bdb015af86c687c,107.180.172.214,"Mozilla/5.0 (Windows NT 10.0; Win64; x64) AppleWebKit/537.36 (KHTML, like Gecko) Chrome/126.0.0.0 Safari/537.36",WebKit,Chrome,126.0.0.0,Windows,10.0,https://app.prolific.com/,"en-US,en;q=0.9",g9motuh7j,66967c5af3c4c0d13cb52db1,,,,,,"<div style='text-align:center;'><p>In this park, there is a sign which reads 'Do not walk on the grass'.</p><div style='display:flex; justify-content:center; align-items:center;'><img src='img/sign.png' style='width:140px; height:auto; margin-right:10px;' /><img src='img/map2.png' style='width:460px; height:auto;' /></div></div>",slider_trial,,img/map2.png,,50,How important is it to go to the bus stop?
11846,"{""Q0"":""very much""}",survey-text,27,427733,0.0-27.0,1,1,2024-07-18 20:01:09,5db0aa9e43fc9c8a5bdb015af86c687c,107.180.172.214,"Mozilla/5.0 (Windows NT 10.0; Win64; x64) AppleWebKit/537.36 (KHTML, like Gecko) Chrome/126.0.0.0 Safari/537.36",WebKit,Chrome,126.0.0.0,Windows,10.0,https://app.prolific.com/,"en-US,en;q=0.9",g9motuh7j,66967c5af3c4c0d13cb52db1,,,,,,,image_question_trial,,img/map2.png,How much do you think the sign-writer wanted the grass to stay alive?,,
6958,"{""Q0"":""100""}",survey-text,28,434696,0.0-28.0,1,1,2024-07-18 20:01:09,5db0aa9e43fc9c8a5bdb015af86c687c,107.180.172.214,"Mozilla/5.0 (Windows NT 10.0; Win64; x64) AppleWebKit/537.36 (KHTML, like Gecko) Chrome/126.0.0.0 Safari/537.36",WebKit,Chrome,126.0.0.0,Windows,10.0,https://app.prolific.com/,"en-US,en;q=0.9",g9motuh7j,66967c5af3c4c0d13cb52db1,,,,,,,image_question_trial,,img/map2.png,How many people do you think will go to the coffee shop today?,,
11558,"{""Q0"":""A council member who polled the community and measured and analyzed the traffic at the park""}",survey-text,29,446257,0.0-29.0,1,1,2024-07-18 20:01:09,5db0aa9e43fc9c8a5bdb015af86c687c,107.180.172.214,"Mozilla/5.0 (Windows NT 10.0; Win64; x64) AppleWebKit/537.36 (KHTML, like Gecko) Chrome/126.0.0.0 Safari/537.36",WebKit,Chrome,126.0.0.0,Windows,10.0,https://app.prolific.com/,"en-US,en;q=0.9",g9motuh7j,66967c5af3c4c0d13cb52db1,,,,,,,image_question_trial,,img/map2.png,Who do you think is most likely wrote the sign with the rule? A council member who polled the community and measured and analyzed the traffic at the park? A person randomly selected from the community? A person from the community who doesn't really visit the park? Or someone else?,,
7573,"{""Q0"":""200""}",survey-text,30,453834,0.0-30.0,1,1,2024-07-18 20:01:09,5db0aa9e43fc9c8a5bdb015af86c687c,107.180.172.214,"Mozilla/5.0 (Windows NT 10.0; Win64; x64) AppleWebKit/537.36 (KHTML, like Gecko) Chrome/126.0.0.0 Safari/537.36",WebKit,Chrome,126.0.0.0,Windows,10.0,https://app.prolific.com/,"en-US,en;q=0.9",g9motuh7j,66967c5af3c4c0d13cb52db1,,,,,,,image_question_trial,,img/map1.png,How many people do you think walk in this park on a single day?,,
20711,"{""Q0"":""100""}",survey-text,31,474548,0.0-31.0,1,1,2024-07-18 20:01:09,5db0aa9e43fc9c8a5bdb015af86c687c,107.180.172.214,"Mozilla/5.0 (Windows NT 10.0; Win64; x64) AppleWebKit/537.36 (KHTML, like Gecko) Chrome/126.0.0.0 Safari/537.36",WebKit,Chrome,126.0.0.0,Windows,10.0,https://app.prolific.com/,"en-US,en;q=0.9",g9motuh7j,66967c5af3c4c0d13cb52db1,,,,,,,image_question_trial,,img/map3.png,How many people do you think will go to the coffee shop today?,,
7150,"{""Q0"":""20""}",survey-text,32,481703,0.0-32.0,1,1,2024-07-18 20:01:09,5db0aa9e43fc9c8a5bdb015af86c687c,107.180.172.214,"Mozilla/5.0 (Windows NT 10.0; Win64; x64) AppleWebKit/537.36 (KHTML, like Gecko) Chrome/126.0.0.0 Safari/537.36",WebKit,Chrome,126.0.0.0,Windows,10.0,https://app.prolific.com/,"en-US,en;q=0.9",g9motuh7j,66967c5af3c4c0d13cb52db1,,,,,,,image_question_trial,,img/map2.png,How many people do you think will go to the urgent care center today?,,
8452,"{""Q0"":""200""}",survey-text,33,490159,0.0-33.0,1,1,2024-07-18 20:01:09,5db0aa9e43fc9c8a5bdb015af86c687c,107.180.172.214,"Mozilla/5.0 (Windows NT 10.0; Win64; x64) AppleWebKit/537.36 (KHTML, like Gecko) Chrome/126.0.0.0 Safari/537.36",WebKit,Chrome,126.0.0.0,Windows,10.0,https://app.prolific.com/,"en-US,en;q=0.9",g9motuh7j,66967c5af3c4c0d13cb52db1,,,,,,,image_question_trial,,img/map1.png,What would you guess is the number of people stepping on the grass for it to die?,,
11635,"{""Q0"":""to protect the grass""}",survey-text,34,501798,0.0-34.0,1,1,2024-07-18 20:01:09,5db0aa9e43fc9c8a5bdb015af86c687c,107.180.172.214,"Mozilla/5.0 (Windows NT 10.0; Win64; x64) AppleWebKit/537.36 (KHTML, like Gecko) Chrome/126.0.0.0 Safari/537.36",WebKit,Chrome,126.0.0.0,Windows,10.0,https://app.prolific.com/,"en-US,en;q=0.9",g9motuh7j,66967c5af3c4c0d13cb52db1,,,,,,,image_question_trial,,img/map2.png,Why do you think they have this rule?,,
19216,"{""Q0"":""10""}",survey-text,35,521018,0.0-35.0,1,1,2024-07-18 20:01:09,5db0aa9e43fc9c8a5bdb015af86c687c,107.180.172.214,"Mozilla/5.0 (Windows NT 10.0; Win64; x64) AppleWebKit/537.36 (KHTML, like Gecko) Chrome/126.0.0.0 Safari/537.36",WebKit,Chrome,126.0.0.0,Windows,10.0,https://app.prolific.com/,"en-US,en;q=0.9",g9motuh7j,66967c5af3c4c0d13cb52db1,,,,,,,image_question_trial,,img/map3.png,How many people do you think will go to the bus stop today?,,
4026,100,html-slider-response,36,525045,0.0-36.0,1,1,2024-07-18 20:01:09,5db0aa9e43fc9c8a5bdb015af86c687c,107.180.172.214,"Mozilla/5.0 (Windows NT 10.0; Win64; x64) AppleWebKit/537.36 (KHTML, like Gecko) Chrome/126.0.0.0 Safari/537.36",WebKit,Chrome,126.0.0.0,Windows,10.0,https://app.prolific.com/,"en-US,en;q=0.9",g9motuh7j,66967c5af3c4c0d13cb52db1,,,,,,"<div style='text-align:center;'><p>In this park, there is a sign which reads 'Do not walk on the grass'.</p><div style='display:flex; justify-content:center; align-items:center;'><img src='img/sign.png' style='width:140px; height:auto; margin-right:10px;' /><img src='img/map1.png' style='width:460px; height:auto;' /></div></div>",slider_trial,,img/map1.png,,50,How important is it to go to the bus stop?
8607,"{""Q0"":""very bad""}",survey-text,37,533656,0.0-37.0,1,1,2024-07-18 20:01:09,5db0aa9e43fc9c8a5bdb015af86c687c,107.180.172.214,"Mozilla/5.0 (Windows NT 10.0; Win64; x64) AppleWebKit/537.36 (KHTML, like Gecko) Chrome/126.0.0.0 Safari/537.36",WebKit,Chrome,126.0.0.0,Windows,10.0,https://app.prolific.com/,"en-US,en;q=0.9",g9motuh7j,66967c5af3c4c0d13cb52db1,,,,,,,image_question_trial,,img/map1.png,How bad would it be for everyone if the grass died?,,
5419,"{""Q0"":""very bad""}",survey-text,38,539078,0.0-38.0,1,1,2024-07-18 20:01:09,5db0aa9e43fc9c8a5bdb015af86c687c,107.180.172.214,"Mozilla/5.0 (Windows NT 10.0; Win64; x64) AppleWebKit/537.36 (KHTML, like Gecko) Chrome/126.0.0.0 Safari/537.36",WebKit,Chrome,126.0.0.0,Windows,10.0,https://app.prolific.com/,"en-US,en;q=0.9",g9motuh7j,66967c5af3c4c0d13cb52db1,,,,,,,image_question_trial,,img/map3.png,How bad would it be for everyone if the grass died?,,
2187,100,html-slider-response,39,541267,0.0-39.0,1,1,2024-07-18 20:01:09,5db0aa9e43fc9c8a5bdb015af86c687c,107.180.172.214,"Mozilla/5.0 (Windows NT 10.0; Win64; x64) AppleWebKit/537.36 (KHTML, like Gecko) Chrome/126.0.0.0 Safari/537.36",WebKit,Chrome,126.0.0.0,Windows,10.0,https://app.prolific.com/,"en-US,en;q=0.9",g9motuh7j,66967c5af3c4c0d13cb52db1,,,,,,"<div style='text-align:center;'><p>In this park, there is a sign which reads 'Do not walk on the grass'.</p><div style='display:flex; justify-content:center; align-items:center;'><img src='img/sign.png' style='width:140px; height:auto; margin-right:10px;' /><img src='img/map1.png' style='width:460px; height:auto;' /></div></div>",slider_trial,,img/map1.png,,50,How important is it to go to the urgent care center?
4467,"{""Q0"":""20""}",survey-text,40,545738,0.0-40.0,1,1,2024-07-18 20:01:09,5db0aa9e43fc9c8a5bdb015af86c687c,107.180.172.214,"Mozilla/5.0 (Windows NT 10.0; Win64; x64) AppleWebKit/537.36 (KHTML, like Gecko) Chrome/126.0.0.0 Safari/537.36",WebKit,Chrome,126.0.0.0,Windows,10.0,https://app.prolific.com/,"en-US,en;q=0.9",g9motuh7j,66967c5af3c4c0d13cb52db1,,,,,,,image_question_trial,,img/map2.png,How many people do you think will go to the bus stop today?,,
15144,"{""Q0"":""to save the grasses from dying""}",survey-text,41,560887,0.0-41.0,1,1,2024-07-18 20:01:09,5db0aa9e43fc9c8a5bdb015af86c687c,107.180.172.214,"Mozilla/5.0 (Windows NT 10.0; Win64; x64) AppleWebKit/537.36 (KHTML, like Gecko) Chrome/126.0.0.0 Safari/537.36",WebKit,Chrome,126.0.0.0,Windows,10.0,https://app.prolific.com/,"en-US,en;q=0.9",g9motuh7j,66967c5af3c4c0d13cb52db1,,,,,,,image_question_trial,,img/map3.png,Why do you think they have this rule?,,
5015,"{""Q0"":""100""}",survey-text,42,565905,0.0-42.0,1,1,2024-07-18 20:01:09,5db0aa9e43fc9c8a5bdb015af86c687c,107.180.172.214,"Mozilla/5.0 (Windows NT 10.0; Win64; x64) AppleWebKit/537.36 (KHTML, like Gecko) Chrome/126.0.0.0 Safari/537.36",WebKit,Chrome,126.0.0.0,Windows,10.0,https://app.prolific.com/,"en-US,en;q=0.9",g9motuh7j,66967c5af3c4c0d13cb52db1,,,,,,,image_question_trial,,img/map1.png,How many people do you think will go to the coffee shop today?,,
20680,"[{""name"":""understand"",""value"":""yes""},{""name"":""problems"",""value"":""no please""},{""name"":""age"",""value"":""34""},{""name"":""gender"",""value"":""male""},{""name"":""comments"",""value"":""none""}]",survey-html-form,43,586589,0.0-43.0,1,1,2024-07-18 20:01:09,5db0aa9e43fc9c8a5bdb015af86c687c,107.180.172.214,"Mozilla/5.0 (Windows NT 10.0; Win64; x64) AppleWebKit/537.36 (KHTML, like Gecko) Chrome/126.0.0.0 Safari/537.36",WebKit,Chrome,126.0.0.0,Windows,10.0,https://app.prolific.com/,"en-US,en;q=0.9",g9motuh7j,66967c5af3c4c0d13cb52db1,,,,,,,debrief,,,,,
12960,"{""Q0"":""g9motuh7j""}",survey-text,44,599561,0.0-44.0,1,1,2024-07-18 20:01:09,5db0aa9e43fc9c8a5bdb015af86c687c,107.180.172.214,"Mozilla/5.0 (Windows NT 10.0; Win64; x64) AppleWebKit/537.36 (KHTML, like Gecko) Chrome/126.0.0.0 Safari/537.36",WebKit,Chrome,126.0.0.0,Windows,10.0,https://app.prolific.com/,"en-US,en;q=0.9",g9motuh7j,66967c5af3c4c0d13cb52db1,,,,,,,,,,,,
3799,"{""prolific_id"":""5bab94e36c661a0001aea8ec""}",survey-text,0,3807,0.0-0.0,13,1,2024-07-18 20:05:40,5db0aa9e43fc9c8a5bdb015af86c687c,73.40.170.248,"Mozilla/5.0 (Windows NT 10.0; Win64; x64) AppleWebKit/537.36 (KHTML, like Gecko) Chrome/126.0.0.0 Safari/537.36",WebKit,Chrome,126.0.0.0,Windows,10.0,https://app.prolific.com/,"en-US,en;q=0.9",cpjqf65cf,5bab94e36c661a0001aea8ec,,,,,,,,,,,,
,,preload,1,5313,0.0-1.0,13,1,2024-07-18 20:05:40,5db0aa9e43fc9c8a5bdb015af86c687c,73.40.170.248,"Mozilla/5.0 (Windows NT 10.0; Win64; x64) AppleWebKit/537.36 (KHTML, like Gecko) Chrome/126.0.0.0 Safari/537.36",WebKit,Chrome,126.0.0.0,Windows,10.0,https://app.prolific.com/,"en-US,en;q=0.9",cpjqf65cf,5bab94e36c661a0001aea8ec,true,false,[],[],[],,,,,,,
2589, ,html-keyboard-response,2,7903,0.0-2.0,13,1,2024-07-18 20:05:40,5db0aa9e43fc9c8a5bdb015af86c687c,73.40.170.248,"Mozilla/5.0 (Windows NT 10.0; Win64; x64) AppleWebKit/537.36 (KHTML, like Gecko) Chrome/126.0.0.0 Safari/537.36",WebKit,Chrome,126.0.0.0,Windows,10.0,https://app.prolific.com/,"en-US,en;q=0.9",cpjqf65cf,5bab94e36c661a0001aea8ec,,,,,,"<p style=""text-align:center;width:700px;""> Welcome to the experiment! This study takes most people around 10 minutes to complete. Please complete it in one sitting.</p>",,,,,,
3026,y,html-keyboard-response,3,10929,0.0-3.0,13,1,2024-07-18 20:05:40,5db0aa9e43fc9c8a5bdb015af86c687c,73.40.170.248,"Mozilla/5.0 (Windows NT 10.0; Win64; x64) AppleWebKit/537.36 (KHTML, like Gecko) Chrome/126.0.0.0 Safari/537.36",WebKit,Chrome,126.0.0.0,Windows,10.0,https://app.prolific.com/,"en-US,en;q=0.9",cpjqf65cf,5bab94e36c661a0001aea8ec,,,,,,"<p style = ""font-size:16px;"">MIT Computational Cognitive Science Lab</p><h4>Press the 'y' key to consent.</h4><div style = ""background-color:#f2f2f2;""><h3>Informed Consent Form</h3><div style=""text-align:left;width:700px;""><p style = ""font-size:16px;"">In this study, you will be asked to read a set of instructions that describe a particular scenario, and you will then be asked to perform a simple task relating to that scenario. There will also be comprehension and attention checks. Participants who do not answer these checks correctly cannot be approved. In order to get credit for this study, you must read all the questions fully and answer honestly. You may only complete this study once. If you complete this study multiple times, you will be rejected.</p><p style = ""font-size:16px;"">This study is part of a MIT scientific research project. Your decision to complete this study is voluntary. There is no way for us to identify you. The only information we will have, in addition to your responses, is the time at which you completed the survey. The results of the research may be presented at scientific meetings or published in scientific journals. Pressing the ""Y"" key indicates that you are at least 18 years of age, and agree to complete this study voluntarily. Press the ""Y"" key to confirm your agreement and continue.</p></div>",,,,,,
285141,"{""instructions1"":""destinations and terrain of the area""}",survey-text,4,296077,0.0-4.0,13,1,2024-07-18 20:05:40,5db0aa9e43fc9c8a5bdb015af86c687c,73.40.170.248,"Mozilla/5.0 (Windows NT 10.0; Win64; x64) AppleWebKit/537.36 (KHTML, like Gecko) Chrome/126.0.0.0 Safari/537.36",WebKit,Chrome,126.0.0.0,Windows,10.0,https://app.prolific.com/,"en-US,en;q=0.9",cpjqf65cf,5bab94e36c661a0001aea8ec,,,,,,,instructions,,,,,
18425,"{""instructions2"":""Yes""}",survey-text,5,314505,0.0-5.0,13,1,2024-07-18 20:05:40,5db0aa9e43fc9c8a5bdb015af86c687c,73.40.170.248,"Mozilla/5.0 (Windows NT 10.0; Win64; x64) AppleWebKit/537.36 (KHTML, like Gecko) Chrome/126.0.0.0 Safari/537.36",WebKit,Chrome,126.0.0.0,Windows,10.0,https://app.prolific.com/,"en-US,en;q=0.9",cpjqf65cf,5bab94e36c661a0001aea8ec,,,,,,,instructions,,,,,
21333,"{""map_attention"":""Maps showing a small city, park, and destinations"",""squares_attention"":""Two terrains (grass and sidewalk) and three destinations (urgent care, bus stop, coffee shop)"",""answer_attention"":""Based on your own best judgment based on the map that you see, as well as your <i>own</i> common sense intuitions about towns and these kinds of destinations in general.""}",survey-multi-choice,6,335840,0.0-6.0,13,1,2024-07-18 20:05:40,5db0aa9e43fc9c8a5bdb015af86c687c,73.40.170.248,"Mozilla/5.0 (Windows NT 10.0; Win64; x64) AppleWebKit/537.36 (KHTML, like Gecko) Chrome/126.0.0.0 Safari/537.36",WebKit,Chrome,126.0.0.0,Windows,10.0,https://app.prolific.com/,"en-US,en;q=0.9",cpjqf65cf,5bab94e36c661a0001aea8ec,,,,,,,,"[0,1,2]",,,,
20325,"{""Q0"":""200""}",survey-text,7,356170,0.0-7.0,13,1,2024-07-18 20:05:40,5db0aa9e43fc9c8a5bdb015af86c687c,73.40.170.248,"Mozilla/5.0 (Windows NT 10.0; Win64; x64) AppleWebKit/537.36 (KHTML, like Gecko) Chrome/126.0.0.0 Safari/537.36",WebKit,Chrome,126.0.0.0,Windows,10.0,https://app.prolific.com/,"en-US,en;q=0.9",cpjqf65cf,5bab94e36c661a0001aea8ec,,,,,,,image_question_trial,,img/map1.png,How many people do you think walk in this park on a single day?,,
23960,"{""Q0"":""A good deal because it looks intricately designed""}",survey-text,8,380131,0.0-8.0,13,1,2024-07-18 20:05:40,5db0aa9e43fc9c8a5bdb015af86c687c,73.40.170.248,"Mozilla/5.0 (Windows NT 10.0; Win64; x64) AppleWebKit/537.36 (KHTML, like Gecko) Chrome/126.0.0.0 Safari/537.36",WebKit,Chrome,126.0.0.0,Windows,10.0,https://app.prolific.com/,"en-US,en;q=0.9",cpjqf65cf,5bab94e36c661a0001aea8ec,,,,,,,image_question_trial,,img/map3.png,How much do you think the sign-writer wanted the grass to stay alive?,,
12393,74,html-slider-response,9,392528,0.0-9.0,13,1,2024-07-18 20:05:40,5db0aa9e43fc9c8a5bdb015af86c687c,73.40.170.248,"Mozilla/5.0 (Windows NT 10.0; Win64; x64) AppleWebKit/537.36 (KHTML, like Gecko) Chrome/126.0.0.0 Safari/537.36",WebKit,Chrome,126.0.0.0,Windows,10.0,https://app.prolific.com/,"en-US,en;q=0.9",cpjqf65cf,5bab94e36c661a0001aea8ec,,,,,,"<div style='text-align:center;'><p>In this park, there is a sign which reads 'Do not walk on the grass'.</p><div style='display:flex; justify-content:center; align-items:center;'><img src='img/sign.png' style='width:140px; height:auto; margin-right:10px;' /><img src='img/map2.png' style='width:460px; height:auto;' /></div></div>",slider_trial,,img/map2.png,,50,How important is it to go to the urgent care center?
19108,"{""Q0"":""A city council member""}",survey-text,10,411638,0.0-10.0,13,1,2024-07-18 20:05:40,5db0aa9e43fc9c8a5bdb015af86c687c,73.40.170.248,"Mozilla/5.0 (Windows NT 10.0; Win64; x64) AppleWebKit/537.36 (KHTML, like Gecko) Chrome/126.0.0.0 Safari/537.36",WebKit,Chrome,126.0.0.0,Windows,10.0,https://app.prolific.com/,"en-US,en;q=0.9",cpjqf65cf,5bab94e36c661a0001aea8ec,,,,,,,image_question_trial,,img/map2.png,Who do you think is most likely wrote the sign with the rule? A council member who polled the community and measured and analyzed the traffic at the park? A person randomly selected from the community? A person from the community who doesn't really visit the park? Or someone else?,,
32207,"{""Q0"":""30""}",survey-text,11,443848,0.0-11.0,13,1,2024-07-18 20:05:40,5db0aa9e43fc9c8a5bdb015af86c687c,73.40.170.248,"Mozilla/5.0 (Windows NT 10.0; Win64; x64) AppleWebKit/537.36 (KHTML, like Gecko) Chrome/126.0.0.0 Safari/537.36",WebKit,Chrome,126.0.0.0,Windows,10.0,https://app.prolific.com/,"en-US,en;q=0.9",cpjqf65cf,5bab94e36c661a0001aea8ec,,,,,,,image_question_trial,,img/map1.png,How many people do you think will go to the bus stop today?,,
8948,"{""Q0"":""20""}",survey-text,12,452798,0.0-12.0,13,1,2024-07-18 20:05:40,5db0aa9e43fc9c8a5bdb015af86c687c,73.40.170.248,"Mozilla/5.0 (Windows NT 10.0; Win64; x64) AppleWebKit/537.36 (KHTML, like Gecko) Chrome/126.0.0.0 Safari/537.36",WebKit,Chrome,126.0.0.0,Windows,10.0,https://app.prolific.com/,"en-US,en;q=0.9",cpjqf65cf,5bab94e36c661a0001aea8ec,,,,,,,image_question_trial,,img/map2.png,How many people do you think will go to the urgent care center today?,,
5854,"{""Q0"":""15""}",survey-text,13,458655,0.0-13.0,13,1,2024-07-18 20:05:40,5db0aa9e43fc9c8a5bdb015af86c687c,73.40.170.248,"Mozilla/5.0 (Windows NT 10.0; Win64; x64) AppleWebKit/537.36 (KHTML, like Gecko) Chrome/126.0.0.0 Safari/537.36",WebKit,Chrome,126.0.0.0,Windows,10.0,https://app.prolific.com/,"en-US,en;q=0.9",cpjqf65cf,5bab94e36c661a0001aea8ec,,,,,,,image_question_trial,,img/map1.png,How many people do you think will go to the urgent care center today?,,
53187,"{""Q0"":""100""}",survey-text,14,511845,0.0-14.0,13,1,2024-07-18 20:05:40,5db0aa9e43fc9c8a5bdb015af86c687c,73.40.170.248,"Mozilla/5.0 (Windows NT 10.0; Win64; x64) AppleWebKit/537.36 (KHTML, like Gecko) Chrome/126.0.0.0 Safari/537.36",WebKit,Chrome,126.0.0.0,Windows,10.0,https://app.prolific.com/,"en-US,en;q=0.9",cpjqf65cf,5bab94e36c661a0001aea8ec,,,,,,,image_question_trial,,img/map2.png,What would you guess is the number of people stepping on the grass for it to die?,,
14351,"{""Q0"":""I dont think they cared very much""}",survey-text,15,526197,0.0-15.0,13,1,2024-07-18 20:05:40,5db0aa9e43fc9c8a5bdb015af86c687c,73.40.170.248,"Mozilla/5.0 (Windows NT 10.0; Win64; x64) AppleWebKit/537.36 (KHTML, like Gecko) Chrome/126.0.0.0 Safari/537.36",WebKit,Chrome,126.0.0.0,Windows,10.0,https://app.prolific.com/,"en-US,en;q=0.9",cpjqf65cf,5bab94e36c661a0001aea8ec,,,,,,,image_question_trial,,img/map1.png,How much do you think the sign-writer wanted the grass to stay alive?,,
9215,"{""Q0"":""not very""}",survey-text,16,535414,0.0-16.0,13,1,2024-07-18 20:05:40,5db0aa9e43fc9c8a5bdb015af86c687c,73.40.170.248,"Mozilla/5.0 (Windows NT 10.0; Win64; x64) AppleWebKit/537.36 (KHTML, like Gecko) Chrome/126.0.0.0 Safari/537.36",WebKit,Chrome,126.0.0.0,Windows,10.0,https://app.prolific.com/,"en-US,en;q=0.9",cpjqf65cf,5bab94e36c661a0001aea8ec,,,,,,,image_question_trial,,img/map3.png,How bad would it be for everyone if the grass died?,,
45898,"{""Q0"":""not very much""}",survey-text,17,581314,0.0-17.0,13,1,2024-07-18 20:05:40,5db0aa9e43fc9c8a5bdb015af86c687c,73.40.170.248,"Mozilla/5.0 (Windows NT 10.0; Win64; x64) AppleWebKit/537.36 (KHTML, like Gecko) Chrome/126.0.0.0 Safari/537.36",WebKit,Chrome,126.0.0.0,Windows,10.0,https://app.prolific.com/,"en-US,en;q=0.9",cpjqf65cf,5bab94e36c661a0001aea8ec,,,,,,,image_question_trial,,img/map2.png,How much do you think the sign-writer wanted the grass to stay alive?,,
6997,83,html-slider-response,18,588313,0.0-18.0,13,1,2024-07-18 20:05:40,5db0aa9e43fc9c8a5bdb015af86c687c,73.40.170.248,"Mozilla/5.0 (Windows NT 10.0; Win64; x64) AppleWebKit/537.36 (KHTML, like Gecko) Chrome/126.0.0.0 Safari/537.36",WebKit,Chrome,126.0.0.0,Windows,10.0,https://app.prolific.com/,"en-US,en;q=0.9",cpjqf65cf,5bab94e36c661a0001aea8ec,,,,,,"<div style='text-align:center;'><p>In this park, there is a sign which reads 'Do not walk on the grass'.</p><div style='display:flex; justify-content:center; align-items:center;'><img src='img/sign.png' style='width:140px; height:auto; margin-right:10px;' /><img src='img/map3.png' style='width:460px; height:auto;' /></div></div>",slider_trial,,img/map3.png,,50,How important is it to go to the coffee shop?
106933,"{""Q0"":""A council member""}",survey-text,19,695249,0.0-19.0,13,1,2024-07-18 20:05:40,5db0aa9e43fc9c8a5bdb015af86c687c,73.40.170.248,"Mozilla/5.0 (Windows NT 10.0; Win64; x64) AppleWebKit/537.36 (KHTML, like Gecko) Chrome/126.0.0.0 Safari/537.36",WebKit,Chrome,126.0.0.0,Windows,10.0,https://app.prolific.com/,"en-US,en;q=0.9",cpjqf65cf,5bab94e36c661a0001aea8ec,,,,,,,image_question_trial,,img/map1.png,Who do you think is most likely wrote the sign with the rule? A council member who polled the community and measured and analyzed the traffic at the park? A person randomly selected from the community? A person from the community who doesn't really visit the park? Or someone else?,,
6109,"{""Q0"":""10""}",survey-text,20,701360,0.0-20.0,13,1,2024-07-18 20:05:40,5db0aa9e43fc9c8a5bdb015af86c687c,73.40.170.248,"Mozilla/5.0 (Windows NT 10.0; Win64; x64) AppleWebKit/537.36 (KHTML, like Gecko) Chrome/126.0.0.0 Safari/537.36",WebKit,Chrome,126.0.0.0,Windows,10.0,https://app.prolific.com/,"en-US,en;q=0.9",cpjqf65cf,5bab94e36c661a0001aea8ec,,,,,,,image_question_trial,,img/map3.png,How many people do you think will go to the bus stop today?,,
78610,29,html-slider-response,21,779960,0.0-21.0,13,1,2024-07-18 20:05:40,5db0aa9e43fc9c8a5bdb015af86c687c,73.40.170.248,"Mozilla/5.0 (Windows NT 10.0; Win64; x64) AppleWebKit/537.36 (KHTML, like Gecko) Chrome/126.0.0.0 Safari/537.36",WebKit,Chrome,126.0.0.0,Windows,10.0,https://app.prolific.com/,"en-US,en;q=0.9",cpjqf65cf,5bab94e36c661a0001aea8ec,,,,,,"<div style='text-align:center;'><p>In this park, there is a sign which reads 'Do not walk on the grass'.</p><div style='display:flex; justify-content:center; align-items:center;'><img src='img/sign.png' style='width:140px; height:auto; margin-right:10px;' /><img src='img/map2.png' style='width:460px; height:auto;' /></div></div>",slider_trial,,img/map2.png,,50,How important is it to go to the bus stop?
5285,"{""Q0"":""35""}",survey-text,22,785247,0.0-22.0,13,1,2024-07-18 20:05:40,5db0aa9e43fc9c8a5bdb015af86c687c,73.40.170.248,"Mozilla/5.0 (Windows NT 10.0; Win64; x64) AppleWebKit/537.36 (KHTML, like Gecko) Chrome/126.0.0.0 Safari/537.36",WebKit,Chrome,126.0.0.0,Windows,10.0,https://app.prolific.com/,"en-US,en;q=0.9",cpjqf65cf,5bab94e36c661a0001aea8ec,,,,,,,image_question_trial,,img/map2.png,How many people do you think will go to the coffee shop today?,,
5754,39,html-slider-response,23,791002,0.0-23.0,13,1,2024-07-18 20:05:40,5db0aa9e43fc9c8a5bdb015af86c687c,73.40.170.248,"Mozilla/5.0 (Windows NT 10.0; Win64; x64) AppleWebKit/537.36 (KHTML, like Gecko) Chrome/126.0.0.0 Safari/537.36",WebKit,Chrome,126.0.0.0,Windows,10.0,https://app.prolific.com/,"en-US,en;q=0.9",cpjqf65cf,5bab94e36c661a0001aea8ec,,,,,,"<div style='text-align:center;'><p>In this park, there is a sign which reads 'Do not walk on the grass'.</p><div style='display:flex; justify-content:center; align-items:center;'><img src='img/sign.png' style='width:140px; height:auto; margin-right:10px;' /><img src='img/map3.png' style='width:460px; height:auto;' /></div></div>",slider_trial,,img/map3.png,,50,How important is it to go to the bus stop?
40809,"{""Q0"":""To direct people to the three locations easier""}",survey-text,24,831814,0.0-24.0,13,1,2024-07-18 20:05:40,5db0aa9e43fc9c8a5bdb015af86c687c,73.40.170.248,"Mozilla/5.0 (Windows NT 10.0; Win64; x64) AppleWebKit/537.36 (KHTML, like Gecko) Chrome/126.0.0.0 Safari/537.36",WebKit,Chrome,126.0.0.0,Windows,10.0,https://app.prolific.com/,"en-US,en;q=0.9",cpjqf65cf,5bab94e36c661a0001aea8ec,,,,,,,image_question_trial,,img/map1.png,Why do you think they have this rule?,,
85817,37,html-slider-response,25,917644,0.0-25.0,13,1,2024-07-18 20:05:40,5db0aa9e43fc9c8a5bdb015af86c687c,73.40.170.248,"Mozilla/5.0 (Windows NT 10.0; Win64; x64) AppleWebKit/537.36 (KHTML, like Gecko) Chrome/126.0.0.0 Safari/537.36",WebKit,Chrome,126.0.0.0,Windows,10.0,https://app.prolific.com/,"en-US,en;q=0.9",cpjqf65cf,5bab94e36c661a0001aea8ec,,,,,,"<div style='text-align:center;'><p>In this park, there is a sign which reads 'Do not walk on the grass'.</p><div style='display:flex; justify-content:center; align-items:center;'><img src='img/sign.png' style='width:140px; height:auto; margin-right:10px;' /><img src='img/map1.png' style='width:460px; height:auto;' /></div></div>",slider_trial,,img/map1.png,,50,How important is it to go to the bus stop?
7519,"{""Q0"":""300""}",survey-text,26,925165,0.0-26.0,13,1,2024-07-18 20:05:40,5db0aa9e43fc9c8a5bdb015af86c687c,73.40.170.248,"Mozilla/5.0 (Windows NT 10.0; Win64; x64) AppleWebKit/537.36 (KHTML, like Gecko) Chrome/126.0.0.0 Safari/537.36",WebKit,Chrome,126.0.0.0,Windows,10.0,https://app.prolific.com/,"en-US,en;q=0.9",cpjqf65cf,5bab94e36c661a0001aea8ec,,,,,,,image_question_trial,,img/map3.png,How many people do you think walk in this park on a single day?,,
4602,"{""Q0"":""150""}",survey-text,27,929769,0.0-27.0,13,1,2024-07-18 20:05:40,5db0aa9e43fc9c8a5bdb015af86c687c,73.40.170.248,"Mozilla/5.0 (Windows NT 10.0; Win64; x64) AppleWebKit/537.36 (KHTML, like Gecko) Chrome/126.0.0.0 Safari/537.36",WebKit,Chrome,126.0.0.0,Windows,10.0,https://app.prolific.com/,"en-US,en;q=0.9",cpjqf65cf,5bab94e36c661a0001aea8ec,,,,,,,image_question_trial,,img/map2.png,How many people do you think walk in this park on a single day?,,
12785,"{""Q0"":""15""}",survey-text,28,942556,0.0-28.0,13,1,2024-07-18 20:05:40,5db0aa9e43fc9c8a5bdb015af86c687c,73.40.170.248,"Mozilla/5.0 (Windows NT 10.0; Win64; x64) AppleWebKit/537.36 (KHTML, like Gecko) Chrome/126.0.0.0 Safari/537.36",WebKit,Chrome,126.0.0.0,Windows,10.0,https://app.prolific.com/,"en-US,en;q=0.9",cpjqf65cf,5bab94e36c661a0001aea8ec,,,,,,,image_question_trial,,img/map3.png,What would you guess is the number of people stepping on the grass for it to die?,,
6257,"{""Q0"":""Not very bad""}",survey-text,29,948816,0.0-29.0,13,1,2024-07-18 20:05:40,5db0aa9e43fc9c8a5bdb015af86c687c,73.40.170.248,"Mozilla/5.0 (Windows NT 10.0; Win64; x64) AppleWebKit/537.36 (KHTML, like Gecko) Chrome/126.0.0.0 Safari/537.36",WebKit,Chrome,126.0.0.0,Windows,10.0,https://app.prolific.com/,"en-US,en;q=0.9",cpjqf65cf,5bab94e36c661a0001aea8ec,,,,,,,image_question_trial,,img/map1.png,How bad would it be for everyone if the grass died?,,
4430,82,html-slider-response,30,953247,0.0-30.0,13,1,2024-07-18 20:05:40,5db0aa9e43fc9c8a5bdb015af86c687c,73.40.170.248,"Mozilla/5.0 (Windows NT 10.0; Win64; x64) AppleWebKit/537.36 (KHTML, like Gecko) Chrome/126.0.0.0 Safari/537.36",WebKit,Chrome,126.0.0.0,Windows,10.0,https://app.prolific.com/,"en-US,en;q=0.9",cpjqf65cf,5bab94e36c661a0001aea8ec,,,,,,"<div style='text-align:center;'><p>In this park, there is a sign which reads 'Do not walk on the grass'.</p><div style='display:flex; justify-content:center; align-items:center;'><img src='img/sign.png' style='width:140px; height:auto; margin-right:10px;' /><img src='img/map2.png' style='width:460px; height:auto;' /></div></div>",slider_trial,,img/map2.png,,50,How important is it to go to the coffee shop?
6316,"{""Q0"":""10""}",survey-text,31,959566,0.0-31.0,13,1,2024-07-18 20:05:40,5db0aa9e43fc9c8a5bdb015af86c687c,73.40.170.248,"Mozilla/5.0 (Windows NT 10.0; Win64; x64) AppleWebKit/537.36 (KHTML, like Gecko) Chrome/126.0.0.0 Safari/537.36",WebKit,Chrome,126.0.0.0,Windows,10.0,https://app.prolific.com/,"en-US,en;q=0.9",cpjqf65cf,5bab94e36c661a0001aea8ec,,,,,,,image_question_trial,,img/map3.png,How many people do you think will go to the urgent care center today?,,
14688,"{""Q0"":""It isn't a place to play""}",survey-text,32,974255,0.0-32.0,13,1,2024-07-18 20:05:40,5db0aa9e43fc9c8a5bdb015af86c687c,73.40.170.248,"Mozilla/5.0 (Windows NT 10.0; Win64; x64) AppleWebKit/537.36 (KHTML, like Gecko) Chrome/126.0.0.0 Safari/537.36",WebKit,Chrome,126.0.0.0,Windows,10.0,https://app.prolific.com/,"en-US,en;q=0.9",cpjqf65cf,5bab94e36c661a0001aea8ec,,,,,,,image_question_trial,,img/map2.png,Why do you think they have this rule?,,
5367,"{""Q0"":""8""}",survey-text,33,979625,0.0-33.0,13,1,2024-07-18 20:05:40,5db0aa9e43fc9c8a5bdb015af86c687c,73.40.170.248,"Mozilla/5.0 (Windows NT 10.0; Win64; x64) AppleWebKit/537.36 (KHTML, like Gecko) Chrome/126.0.0.0 Safari/537.36",WebKit,Chrome,126.0.0.0,Windows,10.0,https://app.prolific.com/,"en-US,en;q=0.9",cpjqf65cf,5bab94e36c661a0001aea8ec,,,,,,,image_question_trial,,img/map2.png,How many people do you think will go to the bus stop today?,,
563018,"{""Q0"":""Not bad at all""}",survey-text,34,1542646,0.0-34.0,13,1,2024-07-18 20:05:40,5db0aa9e43fc9c8a5bdb015af86c687c,73.40.170.248,"Mozilla/5.0 (Windows NT 10.0; Win64; x64) AppleWebKit/537.36 (KHTML, like Gecko) Chrome/126.0.0.0 Safari/537.36",WebKit,Chrome,126.0.0.0,Windows,10.0,https://app.prolific.com/,"en-US,en;q=0.9",cpjqf65cf,5bab94e36c661a0001aea8ec,,,,,,,image_question_trial,,img/map2.png,How bad would it be for everyone if the grass died?,,
13071,"{""Q0"":""The person who grew the grass""}",survey-text,35,1555721,0.0-35.0,13,1,2024-07-18 20:05:40,5db0aa9e43fc9c8a5bdb015af86c687c,73.40.170.248,"Mozilla/5.0 (Windows NT 10.0; Win64; x64) AppleWebKit/537.36 (KHTML, like Gecko) Chrome/126.0.0.0 Safari/537.36",WebKit,Chrome,126.0.0.0,Windows,10.0,https://app.prolific.com/,"en-US,en;q=0.9",cpjqf65cf,5bab94e36c661a0001aea8ec,,,,,,,image_question_trial,,img/map3.png,Who do you think is most likely wrote the sign with the rule? A council member who polled the community and measured and analyzed the traffic at the park? A person randomly selected from the community? A person from the community who doesn't really visit the park? Or someone else?,,
108892,"{""Q0"":""50""}",survey-text,36,1664615,0.0-36.0,13,1,2024-07-18 20:05:40,5db0aa9e43fc9c8a5bdb015af86c687c,73.40.170.248,"Mozilla/5.0 (Windows NT 10.0; Win64; x64) AppleWebKit/537.36 (KHTML, like Gecko) Chrome/126.0.0.0 Safari/537.36",WebKit,Chrome,126.0.0.0,Windows,10.0,https://app.prolific.com/,"en-US,en;q=0.9",cpjqf65cf,5bab94e36c661a0001aea8ec,,,,,,,image_question_trial,,img/map3.png,How many people do you think will go to the coffee shop today?,,
21344,"{""Q0"":""The grass is designed by someone who doesn't want it stepped on because it looks good""}",survey-text,37,1685962,0.0-37.0,13,1,2024-07-18 20:05:40,5db0aa9e43fc9c8a5bdb015af86c687c,73.40.170.248,"Mozilla/5.0 (Windows NT 10.0; Win64; x64) AppleWebKit/537.36 (KHTML, like Gecko) Chrome/126.0.0.0 Safari/537.36",WebKit,Chrome,126.0.0.0,Windows,10.0,https://app.prolific.com/,"en-US,en;q=0.9",cpjqf65cf,5bab94e36c661a0001aea8ec,,,,,,,image_question_trial,,img/map3.png,Why do you think they have this rule?,,
7180,34,html-slider-response,38,1693144,0.0-38.0,13,1,2024-07-18 20:05:40,5db0aa9e43fc9c8a5bdb015af86c687c,73.40.170.248,"Mozilla/5.0 (Windows NT 10.0; Win64; x64) AppleWebKit/537.36 (KHTML, like Gecko) Chrome/126.0.0.0 Safari/537.36",WebKit,Chrome,126.0.0.0,Windows,10.0,https://app.prolific.com/,"en-US,en;q=0.9",cpjqf65cf,5bab94e36c661a0001aea8ec,,,,,,"<div style='text-align:center;'><p>In this park, there is a sign which reads 'Do not walk on the grass'.</p><div style='display:flex; justify-content:center; align-items:center;'><img src='img/sign.png' style='width:140px; height:auto; margin-right:10px;' /><img src='img/map3.png' style='width:460px; height:auto;' /></div></div>",slider_trial,,img/map3.png,,50,How important is it to go to the urgent care center?
47692,"{""Q0"":""40""}",survey-text,39,1740838,0.0-39.0,13,1,2024-07-18 20:05:40,5db0aa9e43fc9c8a5bdb015af86c687c,73.40.170.248,"Mozilla/5.0 (Windows NT 10.0; Win64; x64) AppleWebKit/537.36 (KHTML, like Gecko) Chrome/126.0.0.0 Safari/537.36",WebKit,Chrome,126.0.0.0,Windows,10.0,https://app.prolific.com/,"en-US,en;q=0.9",cpjqf65cf,5bab94e36c661a0001aea8ec,,,,,,,image_question_trial,,img/map1.png,How many people do you think will go to the coffee shop today?,,
17094,"{""Q0"":""more than 20 per day""}",survey-text,40,1757934,0.0-40.0,13,1,2024-07-18 20:05:40,5db0aa9e43fc9c8a5bdb015af86c687c,73.40.170.248,"Mozilla/5.0 (Windows NT 10.0; Win64; x64) AppleWebKit/537.36 (KHTML, like Gecko) Chrome/126.0.0.0 Safari/537.36",WebKit,Chrome,126.0.0.0,Windows,10.0,https://app.prolific.com/,"en-US,en;q=0.9",cpjqf65cf,5bab94e36c661a0001aea8ec,,,,,,,image_question_trial,,img/map1.png,What would you guess is the number of people stepping on the grass for it to die?,,
58711,58,html-slider-response,41,1816647,0.0-41.0,13,1,2024-07-18 20:05:40,5db0aa9e43fc9c8a5bdb015af86c687c,73.40.170.248,"Mozilla/5.0 (Windows NT 10.0; Win64; x64) AppleWebKit/537.36 (KHTML, like Gecko) Chrome/126.0.0.0 Safari/537.36",WebKit,Chrome,126.0.0.0,Windows,10.0,https://app.prolific.com/,"en-US,en;q=0.9",cpjqf65cf,5bab94e36c661a0001aea8ec,,,,,,"<div style='text-align:center;'><p>In this park, there is a sign which reads 'Do not walk on the grass'.</p><div style='display:flex; justify-content:center; align-items:center;'><img src='img/sign.png' style='width:140px; height:auto; margin-right:10px;' /><img src='img/map1.png' style='width:460px; height:auto;' /></div></div>",slider_trial,,img/map1.png,,50,How important is it to go to the coffee shop?
6068,40,html-slider-response,42,1822716,0.0-42.0,13,1,2024-07-18 20:05:40,5db0aa9e43fc9c8a5bdb015af86c687c,73.40.170.248,"Mozilla/5.0 (Windows NT 10.0; Win64; x64) AppleWebKit/537.36 (KHTML, like Gecko) Chrome/126.0.0.0 Safari/537.36",WebKit,Chrome,126.0.0.0,Windows,10.0,https://app.prolific.com/,"en-US,en;q=0.9",cpjqf65cf,5bab94e36c661a0001aea8ec,,,,,,"<div style='text-align:center;'><p>In this park, there is a sign which reads 'Do not walk on the grass'.</p><div style='display:flex; justify-content:center; align-items:center;'><img src='img/sign.png' style='width:140px; height:auto; margin-right:10px;' /><img src='img/map1.png' style='width:460px; height:auto;' /></div></div>",slider_trial,,img/map1.png,,50,How important is it to go to the urgent care center?
9301,"[{""name"":""understand"",""value"":""yes""},{""name"":""problems"",""value"":""no""},{""name"":""age"",""value"":""32""},{""name"":""gender"",""value"":""male""},{""name"":""comments"",""value"":""""}]",survey-html-form,43,1832019,0.0-43.0,13,1,2024-07-18 20:05:40,5db0aa9e43fc9c8a5bdb015af86c687c,73.40.170.248,"Mozilla/5.0 (Windows NT 10.0; Win64; x64) AppleWebKit/537.36 (KHTML, like Gecko) Chrome/126.0.0.0 Safari/537.36",WebKit,Chrome,126.0.0.0,Windows,10.0,https://app.prolific.com/,"en-US,en;q=0.9",cpjqf65cf,5bab94e36c661a0001aea8ec,,,,,,,debrief,,,,,
7769,"{""Q0"":""cpjqf65cf""}",survey-text,44,1839793,0.0-44.0,13,1,2024-07-18 20:05:40,5db0aa9e43fc9c8a5bdb015af86c687c,73.40.170.248,"Mozilla/5.0 (Windows NT 10.0; Win64; x64) AppleWebKit/537.36 (KHTML, like Gecko) Chrome/126.0.0.0 Safari/537.36",WebKit,Chrome,126.0.0.0,Windows,10.0,https://app.prolific.com/,"en-US,en;q=0.9",cpjqf65cf,5bab94e36c661a0001aea8ec,,,,,,,,,,,,
5169,"{""prolific_id"":""5dae395715dc35001698cd44""}",survey-text,0,5184,0.0-0.0,14,1,2024-07-18 20:05:49,5db0aa9e43fc9c8a5bdb015af86c687c,108.4.246.248,"Mozilla/5.0 (Windows NT 10.0; Win64; x64) AppleWebKit/537.36 (KHTML, like Gecko) Chrome/126.0.0.0 Safari/537.36",WebKit,Chrome,126.0.0.0,Windows,10.0,https://app.prolific.com/,"en-US,en;q=0.9",8f2plxl0b,5dae395715dc35001698cd44,,,,,,,,,,,,
,,preload,1,5478,0.0-1.0,14,1,2024-07-18 20:05:49,5db0aa9e43fc9c8a5bdb015af86c687c,108.4.246.248,"Mozilla/5.0 (Windows NT 10.0; Win64; x64) AppleWebKit/537.36 (KHTML, like Gecko) Chrome/126.0.0.0 Safari/537.36",WebKit,Chrome,126.0.0.0,Windows,10.0,https://app.prolific.com/,"en-US,en;q=0.9",8f2plxl0b,5dae395715dc35001698cd44,true,false,[],[],[],,,,,,,
3350, ,html-keyboard-response,2,8830,0.0-2.0,14,1,2024-07-18 20:05:49,5db0aa9e43fc9c8a5bdb015af86c687c,108.4.246.248,"Mozilla/5.0 (Windows NT 10.0; Win64; x64) AppleWebKit/537.36 (KHTML, like Gecko) Chrome/126.0.0.0 Safari/537.36",WebKit,Chrome,126.0.0.0,Windows,10.0,https://app.prolific.com/,"en-US,en;q=0.9",8f2plxl0b,5dae395715dc35001698cd44,,,,,,"<p style=""text-align:center;width:700px;""> Welcome to the experiment! This study takes most people around 10 minutes to complete. Please complete it in one sitting.</p>",,,,,,
9630,y,html-keyboard-response,3,18461,0.0-3.0,14,1,2024-07-18 20:05:49,5db0aa9e43fc9c8a5bdb015af86c687c,108.4.246.248,"Mozilla/5.0 (Windows NT 10.0; Win64; x64) AppleWebKit/537.36 (KHTML, like Gecko) Chrome/126.0.0.0 Safari/537.36",WebKit,Chrome,126.0.0.0,Windows,10.0,https://app.prolific.com/,"en-US,en;q=0.9",8f2plxl0b,5dae395715dc35001698cd44,,,,,,"<p style = ""font-size:16px;"">MIT Computational Cognitive Science Lab</p><h4>Press the 'y' key to consent.</h4><div style = ""background-color:#f2f2f2;""><h3>Informed Consent Form</h3><div style=""text-align:left;width:700px;""><p style = ""font-size:16px;"">In this study, you will be asked to read a set of instructions that describe a particular scenario, and you will then be asked to perform a simple task relating to that scenario. There will also be comprehension and attention checks. Participants who do not answer these checks correctly cannot be approved. In order to get credit for this study, you must read all the questions fully and answer honestly. You may only complete this study once. If you complete this study multiple times, you will be rejected.</p><p style = ""font-size:16px;"">This study is part of a MIT scientific research project. Your decision to complete this study is voluntary. There is no way for us to identify you. The only information we will have, in addition to your responses, is the time at which you completed the survey. The results of the research may be presented at scientific meetings or published in scientific journals. Pressing the ""Y"" key indicates that you are at least 18 years of age, and agree to complete this study voluntarily. Press the ""Y"" key to confirm your agreement and continue.</p></div>",,,,,,
43558,"{""instructions1"":""A medium-sized town""}",survey-text,4,62033,0.0-4.0,14,1,2024-07-18 20:05:49,5db0aa9e43fc9c8a5bdb015af86c687c,108.4.246.248,"Mozilla/5.0 (Windows NT 10.0; Win64; x64) AppleWebKit/537.36 (KHTML, like Gecko) Chrome/126.0.0.0 Safari/537.36",WebKit,Chrome,126.0.0.0,Windows,10.0,https://app.prolific.com/,"en-US,en;q=0.9",8f2plxl0b,5dae395715dc35001698cd44,,,,,,,instructions,,,,,
11507,"{""instructions2"":""Yes""}",survey-text,5,73546,0.0-5.0,14,1,2024-07-18 20:05:49,5db0aa9e43fc9c8a5bdb015af86c687c,108.4.246.248,"Mozilla/5.0 (Windows NT 10.0; Win64; x64) AppleWebKit/537.36 (KHTML, like Gecko) Chrome/126.0.0.0 Safari/537.36",WebKit,Chrome,126.0.0.0,Windows,10.0,https://app.prolific.com/,"en-US,en;q=0.9",8f2plxl0b,5dae395715dc35001698cd44,,,,,,,instructions,,,,,
28604,"{""map_attention"":""Maps showing a small city, park, and destinations"",""squares_attention"":""Two terrains (grass and sidewalk) and three destinations (urgent care, bus stop, coffee shop)"",""answer_attention"":""Based on your own best judgment based on the map that you see, as well as your <i>own</i> common sense intuitions about towns and these kinds of destinations in general.""}",survey-multi-choice,6,102153,0.0-6.0,14,1,2024-07-18 20:05:49,5db0aa9e43fc9c8a5bdb015af86c687c,108.4.246.248,"Mozilla/5.0 (Windows NT 10.0; Win64; x64) AppleWebKit/537.36 (KHTML, like Gecko) Chrome/126.0.0.0 Safari/537.36",WebKit,Chrome,126.0.0.0,Windows,10.0,https://app.prolific.com/,"en-US,en;q=0.9",8f2plxl0b,5dae395715dc35001698cd44,,,,,,,,"[0,1,2]",,,,
19251,"{""Q0"":""1000""}",survey-text,7,121416,0.0-7.0,14,1,2024-07-18 20:05:49,5db0aa9e43fc9c8a5bdb015af86c687c,108.4.246.248,"Mozilla/5.0 (Windows NT 10.0; Win64; x64) AppleWebKit/537.36 (KHTML, like Gecko) Chrome/126.0.0.0 Safari/537.36",WebKit,Chrome,126.0.0.0,Windows,10.0,https://app.prolific.com/,"en-US,en;q=0.9",8f2plxl0b,5dae395715dc35001698cd44,,,,,,,image_question_trial,,img/map3.png,What would you guess is the number of people stepping on the grass for it to die?,,
23931,"{""Q0"":""Very high - 95 percent""}",survey-text,8,145350,0.0-8.0,14,1,2024-07-18 20:05:49,5db0aa9e43fc9c8a5bdb015af86c687c,108.4.246.248,"Mozilla/5.0 (Windows NT 10.0; Win64; x64) AppleWebKit/537.36 (KHTML, like Gecko) Chrome/126.0.0.0 Safari/537.36",WebKit,Chrome,126.0.0.0,Windows,10.0,https://app.prolific.com/,"en-US,en;q=0.9",8f2plxl0b,5dae395715dc35001698cd44,,,,,,,image_question_trial,,img/map1.png,How much do you think the sign-writer wanted the grass to stay alive?,,
17485,57,html-slider-response,9,162838,0.0-9.0,14,1,2024-07-18 20:05:49,5db0aa9e43fc9c8a5bdb015af86c687c,108.4.246.248,"Mozilla/5.0 (Windows NT 10.0; Win64; x64) AppleWebKit/537.36 (KHTML, like Gecko) Chrome/126.0.0.0 Safari/537.36",WebKit,Chrome,126.0.0.0,Windows,10.0,https://app.prolific.com/,"en-US,en;q=0.9",8f2plxl0b,5dae395715dc35001698cd44,,,,,,"<div style='text-align:center;'><p>In this park, there is a sign which reads 'Do not walk on the grass'.</p><div style='display:flex; justify-content:center; align-items:center;'><img src='img/sign.png' style='width:140px; height:auto; margin-right:10px;' /><img src='img/map2.png' style='width:460px; height:auto;' /></div></div>",slider_trial,,img/map2.png,,50,How important is it to go to the bus stop?
16780,"{""Q0"":""A council member who polled the community and measured and analyzed the traffic at the park""}",survey-text,10,179622,0.0-10.0,14,1,2024-07-18 20:05:49,5db0aa9e43fc9c8a5bdb015af86c687c,108.4.246.248,"Mozilla/5.0 (Windows NT 10.0; Win64; x64) AppleWebKit/537.36 (KHTML, like Gecko) Chrome/126.0.0.0 Safari/537.36",WebKit,Chrome,126.0.0.0,Windows,10.0,https://app.prolific.com/,"en-US,en;q=0.9",8f2plxl0b,5dae395715dc35001698cd44,,,,,,,image_question_trial,,img/map1.png,Who do you think is most likely wrote the sign with the rule? A council member who polled the community and measured and analyzed the traffic at the park? A person randomly selected from the community? A person from the community who doesn't really visit the park? Or someone else?,,
28721,"{""Q0"":""To keep the grass healthy and vibrant. It would like better with less people stepping on it.""}",survey-text,11,208346,0.0-11.0,14,1,2024-07-18 20:05:49,5db0aa9e43fc9c8a5bdb015af86c687c,108.4.246.248,"Mozilla/5.0 (Windows NT 10.0; Win64; x64) AppleWebKit/537.36 (KHTML, like Gecko) Chrome/126.0.0.0 Safari/537.36",WebKit,Chrome,126.0.0.0,Windows,10.0,https://app.prolific.com/,"en-US,en;q=0.9",8f2plxl0b,5dae395715dc35001698cd44,,,,,,,image_question_trial,,img/map3.png,Why do you think they have this rule?,,
45444,"{""Q0"":""Less than usual due to the sign to not walk on the grass. The bus stop is by a path that would be easier to get through if walking on the grass.""}",survey-text,12,253792,0.0-12.0,14,1,2024-07-18 20:05:49,5db0aa9e43fc9c8a5bdb015af86c687c,108.4.246.248,"Mozilla/5.0 (Windows NT 10.0; Win64; x64) AppleWebKit/537.36 (KHTML, like Gecko) Chrome/126.0.0.0 Safari/537.36",WebKit,Chrome,126.0.0.0,Windows,10.0,https://app.prolific.com/,"en-US,en;q=0.9",8f2plxl0b,5dae395715dc35001698cd44,,,,,,,image_question_trial,,img/map3.png,How many people do you think will go to the bus stop today?,,
31047,"{""Q0"":""A small percentage of the town's population, but enough people to make it an important spot""}",survey-text,13,284842,0.0-13.0,14,1,2024-07-18 20:05:49,5db0aa9e43fc9c8a5bdb015af86c687c,108.4.246.248,"Mozilla/5.0 (Windows NT 10.0; Win64; x64) AppleWebKit/537.36 (KHTML, like Gecko) Chrome/126.0.0.0 Safari/537.36",WebKit,Chrome,126.0.0.0,Windows,10.0,https://app.prolific.com/,"en-US,en;q=0.9",8f2plxl0b,5dae395715dc35001698cd44,,,,,,,image_question_trial,,img/map3.png,How many people do you think will go to the urgent care center today?,,
17104,"{""Q0"":""More people than the last setup due to the location of the urgent care center""}",survey-text,14,301949,0.0-14.0,14,1,2024-07-18 20:05:49,5db0aa9e43fc9c8a5bdb015af86c687c,108.4.246.248,"Mozilla/5.0 (Windows NT 10.0; Win64; x64) AppleWebKit/537.36 (KHTML, like Gecko) Chrome/126.0.0.0 Safari/537.36",WebKit,Chrome,126.0.0.0,Windows,10.0,https://app.prolific.com/,"en-US,en;q=0.9",8f2plxl0b,5dae395715dc35001698cd44,,,,,,,image_question_trial,,img/map2.png,How many people do you think will go to the urgent care center today?,,
16640,"{""Q0"":""Very little, since you can't walk on the grass""}",survey-text,15,318595,0.0-15.0,14,1,2024-07-18 20:05:49,5db0aa9e43fc9c8a5bdb015af86c687c,108.4.246.248,"Mozilla/5.0 (Windows NT 10.0; Win64; x64) AppleWebKit/537.36 (KHTML, like Gecko) Chrome/126.0.0.0 Safari/537.36",WebKit,Chrome,126.0.0.0,Windows,10.0,https://app.prolific.com/,"en-US,en;q=0.9",8f2plxl0b,5dae395715dc35001698cd44,,,,,,,image_question_trial,,img/map1.png,How many people do you think walk in this park on a single day?,,
19429,"{""Q0"":""More people than the previous map due to more space to walk on the sidewalk""}",survey-text,16,338027,0.0-16.0,14,1,2024-07-18 20:05:49,5db0aa9e43fc9c8a5bdb015af86c687c,108.4.246.248,"Mozilla/5.0 (Windows NT 10.0; Win64; x64) AppleWebKit/537.36 (KHTML, like Gecko) Chrome/126.0.0.0 Safari/537.36",WebKit,Chrome,126.0.0.0,Windows,10.0,https://app.prolific.com/,"en-US,en;q=0.9",8f2plxl0b,5dae395715dc35001698cd44,,,,,,,image_question_trial,,img/map3.png,How many people do you think walk in this park on a single day?,,
5660,56,html-slider-response,17,343689,0.0-17.0,14,1,2024-07-18 20:05:49,5db0aa9e43fc9c8a5bdb015af86c687c,108.4.246.248,"Mozilla/5.0 (Windows NT 10.0; Win64; x64) AppleWebKit/537.36 (KHTML, like Gecko) Chrome/126.0.0.0 Safari/537.36",WebKit,Chrome,126.0.0.0,Windows,10.0,https://app.prolific.com/,"en-US,en;q=0.9",8f2plxl0b,5dae395715dc35001698cd44,,,,,,"<div style='text-align:center;'><p>In this park, there is a sign which reads 'Do not walk on the grass'.</p><div style='display:flex; justify-content:center; align-items:center;'><img src='img/sign.png' style='width:140px; height:auto; margin-right:10px;' /><img src='img/map3.png' style='width:460px; height:auto;' /></div></div>",slider_trial,,img/map3.png,,50,How important is it to go to the bus stop?
9160,"{""Q0"":""To keep the grass healthy""}",survey-text,18,352854,0.0-18.0,14,1,2024-07-18 20:05:49,5db0aa9e43fc9c8a5bdb015af86c687c,108.4.246.248,"Mozilla/5.0 (Windows NT 10.0; Win64; x64) AppleWebKit/537.36 (KHTML, like Gecko) Chrome/126.0.0.0 Safari/537.36",WebKit,Chrome,126.0.0.0,Windows,10.0,https://app.prolific.com/,"en-US,en;q=0.9",8f2plxl0b,5dae395715dc35001698cd44,,,,,,,image_question_trial,,img/map2.png,Why do you think they have this rule?,,
5269,6,html-slider-response,19,358125,0.0-19.0,14,1,2024-07-18 20:05:49,5db0aa9e43fc9c8a5bdb015af86c687c,108.4.246.248,"Mozilla/5.0 (Windows NT 10.0; Win64; x64) AppleWebKit/537.36 (KHTML, like Gecko) Chrome/126.0.0.0 Safari/537.36",WebKit,Chrome,126.0.0.0,Windows,10.0,https://app.prolific.com/,"en-US,en;q=0.9",8f2plxl0b,5dae395715dc35001698cd44,,,,,,"<div style='text-align:center;'><p>In this park, there is a sign which reads 'Do not walk on the grass'.</p><div style='display:flex; justify-content:center; align-items:center;'><img src='img/sign.png' style='width:140px; height:auto; margin-right:10px;' /><img src='img/map3.png' style='width:460px; height:auto;' /></div></div>",slider_trial,,img/map3.png,,50,How important is it to go to the coffee shop?
9936,"{""Q0"":""A council member who polled the community and measured and analyzed the traffic at the park""}",survey-text,20,368065,0.0-20.0,14,1,2024-07-18 20:05:49,5db0aa9e43fc9c8a5bdb015af86c687c,108.4.246.248,"Mozilla/5.0 (Windows NT 10.0; Win64; x64) AppleWebKit/537.36 (KHTML, like Gecko) Chrome/126.0.0.0 Safari/537.36",WebKit,Chrome,126.0.0.0,Windows,10.0,https://app.prolific.com/,"en-US,en;q=0.9",8f2plxl0b,5dae395715dc35001698cd44,,,,,,,image_question_trial,,img/map3.png,Who do you think is most likely wrote the sign with the rule? A council member who polled the community and measured and analyzed the traffic at the park? A person randomly selected from the community? A person from the community who doesn't really visit the park? Or someone else?,,
6039,63,html-slider-response,21,374107,0.0-21.0,14,1,2024-07-18 20:05:49,5db0aa9e43fc9c8a5bdb015af86c687c,108.4.246.248,"Mozilla/5.0 (Windows NT 10.0; Win64; x64) AppleWebKit/537.36 (KHTML, like Gecko) Chrome/126.0.0.0 Safari/537.36",WebKit,Chrome,126.0.0.0,Windows,10.0,https://app.prolific.com/,"en-US,en;q=0.9",8f2plxl0b,5dae395715dc35001698cd44,,,,,,"<div style='text-align:center;'><p>In this park, there is a sign which reads 'Do not walk on the grass'.</p><div style='display:flex; justify-content:center; align-items:center;'><img src='img/sign.png' style='width:140px; height:auto; margin-right:10px;' /><img src='img/map1.png' style='width:460px; height:auto;' /></div></div>",slider_trial,,img/map1.png,,50,How important is it to go to the bus stop?
19329,"{""Q0"":""A large amount of people. I am not an expert of grass health though""}",survey-text,22,393439,0.0-22.0,14,1,2024-07-18 20:05:49,5db0aa9e43fc9c8a5bdb015af86c687c,108.4.246.248,"Mozilla/5.0 (Windows NT 10.0; Win64; x64) AppleWebKit/537.36 (KHTML, like Gecko) Chrome/126.0.0.0 Safari/537.36",WebKit,Chrome,126.0.0.0,Windows,10.0,https://app.prolific.com/,"en-US,en;q=0.9",8f2plxl0b,5dae395715dc35001698cd44,,,,,,,image_question_trial,,img/map2.png,What would you guess is the number of people stepping on the grass for it to die?,,
3449,"{""Q0"":""Yes""}",survey-text,23,396893,0.0-23.0,14,1,2024-07-18 20:05:49,5db0aa9e43fc9c8a5bdb015af86c687c,108.4.246.248,"Mozilla/5.0 (Windows NT 10.0; Win64; x64) AppleWebKit/537.36 (KHTML, like Gecko) Chrome/126.0.0.0 Safari/537.36",WebKit,Chrome,126.0.0.0,Windows,10.0,https://app.prolific.com/,"en-US,en;q=0.9",8f2plxl0b,5dae395715dc35001698cd44,,,,,,,image_question_trial,,img/map2.png,How bad would it be for everyone if the grass died?,,
4781,99,html-slider-response,24,401677,0.0-24.0,14,1,2024-07-18 20:05:49,5db0aa9e43fc9c8a5bdb015af86c687c,108.4.246.248,"Mozilla/5.0 (Windows NT 10.0; Win64; x64) AppleWebKit/537.36 (KHTML, like Gecko) Chrome/126.0.0.0 Safari/537.36",WebKit,Chrome,126.0.0.0,Windows,10.0,https://app.prolific.com/,"en-US,en;q=0.9",8f2plxl0b,5dae395715dc35001698cd44,,,,,,"<div style='text-align:center;'><p>In this park, there is a sign which reads 'Do not walk on the grass'.</p><div style='display:flex; justify-content:center; align-items:center;'><img src='img/sign.png' style='width:140px; height:auto; margin-right:10px;' /><img src='img/map2.png' style='width:460px; height:auto;' /></div></div>",slider_trial,,img/map2.png,,50,How important is it to go to the urgent care center?
2891,1,html-slider-response,25,404570,0.0-25.0,14,1,2024-07-18 20:05:49,5db0aa9e43fc9c8a5bdb015af86c687c,108.4.246.248,"Mozilla/5.0 (Windows NT 10.0; Win64; x64) AppleWebKit/537.36 (KHTML, like Gecko) Chrome/126.0.0.0 Safari/537.36",WebKit,Chrome,126.0.0.0,Windows,10.0,https://app.prolific.com/,"en-US,en;q=0.9",8f2plxl0b,5dae395715dc35001698cd44,,,,,,"<div style='text-align:center;'><p>In this park, there is a sign which reads 'Do not walk on the grass'.</p><div style='display:flex; justify-content:center; align-items:center;'><img src='img/sign.png' style='width:140px; height:auto; margin-right:10px;' /><img src='img/map1.png' style='width:460px; height:auto;' /></div></div>",slider_trial,,img/map1.png,,50,How important is it to go to the coffee shop?
29440,"{""Q0"":""It would be bad in a superficial sense as the town would like less vibrant and nice. However, it would allow more free walking for people to get to places.""}",survey-text,26,434013,0.0-26.0,14,1,2024-07-18 20:05:49,5db0aa9e43fc9c8a5bdb015af86c687c,108.4.246.248,"Mozilla/5.0 (Windows NT 10.0; Win64; x64) AppleWebKit/537.36 (KHTML, like Gecko) Chrome/126.0.0.0 Safari/537.36",WebKit,Chrome,126.0.0.0,Windows,10.0,https://app.prolific.com/,"en-US,en;q=0.9",8f2plxl0b,5dae395715dc35001698cd44,,,,,,,image_question_trial,,img/map3.png,How bad would it be for everyone if the grass died?,,
7920,"{""Q0"":""To make the town look better""}",survey-text,27,441937,0.0-27.0,14,1,2024-07-18 20:05:49,5db0aa9e43fc9c8a5bdb015af86c687c,108.4.246.248,"Mozilla/5.0 (Windows NT 10.0; Win64; x64) AppleWebKit/537.36 (KHTML, like Gecko) Chrome/126.0.0.0 Safari/537.36",WebKit,Chrome,126.0.0.0,Windows,10.0,https://app.prolific.com/,"en-US,en;q=0.9",8f2plxl0b,5dae395715dc35001698cd44,,,,,,,image_question_trial,,img/map1.png,Why do you think they have this rule?,,
13896,"{""Q0"":""A decent percentage of the town""}",survey-text,28,455837,0.0-28.0,14,1,2024-07-18 20:05:49,5db0aa9e43fc9c8a5bdb015af86c687c,108.4.246.248,"Mozilla/5.0 (Windows NT 10.0; Win64; x64) AppleWebKit/537.36 (KHTML, like Gecko) Chrome/126.0.0.0 Safari/537.36",WebKit,Chrome,126.0.0.0,Windows,10.0,https://app.prolific.com/,"en-US,en;q=0.9",8f2plxl0b,5dae395715dc35001698cd44,,,,,,,image_question_trial,,img/map2.png,How many people do you think walk in this park on a single day?,,
7781,"{""Q0"":""A council member who polled the community and measured and analyzed the traffic at the park""}",survey-text,29,463621,0.0-29.0,14,1,2024-07-18 20:05:49,5db0aa9e43fc9c8a5bdb015af86c687c,108.4.246.248,"Mozilla/5.0 (Windows NT 10.0; Win64; x64) AppleWebKit/537.36 (KHTML, like Gecko) Chrome/126.0.0.0 Safari/537.36",WebKit,Chrome,126.0.0.0,Windows,10.0,https://app.prolific.com/,"en-US,en;q=0.9",8f2plxl0b,5dae395715dc35001698cd44,,,,,,,image_question_trial,,img/map2.png,Who do you think is most likely wrote the sign with the rule? A council member who polled the community and measured and analyzed the traffic at the park? A person randomly selected from the community? A person from the community who doesn't really visit the park? Or someone else?,,
8773,"{""Q0"":""I don't know""}",survey-text,30,472398,0.0-30.0,14,1,2024-07-18 20:05:49,5db0aa9e43fc9c8a5bdb015af86c687c,108.4.246.248,"Mozilla/5.0 (Windows NT 10.0; Win64; x64) AppleWebKit/537.36 (KHTML, like Gecko) Chrome/126.0.0.0 Safari/537.36",WebKit,Chrome,126.0.0.0,Windows,10.0,https://app.prolific.com/,"en-US,en;q=0.9",8f2plxl0b,5dae395715dc35001698cd44,,,,,,,image_question_trial,,img/map1.png,How many people do you think will go to the urgent care center today?,,
6802,"{""Q0"":""I don't know""}",survey-text,31,479203,0.0-31.0,14,1,2024-07-18 20:05:49,5db0aa9e43fc9c8a5bdb015af86c687c,108.4.246.248,"Mozilla/5.0 (Windows NT 10.0; Win64; x64) AppleWebKit/537.36 (KHTML, like Gecko) Chrome/126.0.0.0 Safari/537.36",WebKit,Chrome,126.0.0.0,Windows,10.0,https://app.prolific.com/,"en-US,en;q=0.9",8f2plxl0b,5dae395715dc35001698cd44,,,,,,,image_question_trial,,img/map1.png,What would you guess is the number of people stepping on the grass for it to die?,,
7930,"{""Q0"":""I don't know""}",survey-text,32,487136,0.0-32.0,14,1,2024-07-18 20:05:49,5db0aa9e43fc9c8a5bdb015af86c687c,108.4.246.248,"Mozilla/5.0 (Windows NT 10.0; Win64; x64) AppleWebKit/537.36 (KHTML, like Gecko) Chrome/126.0.0.0 Safari/537.36",WebKit,Chrome,126.0.0.0,Windows,10.0,https://app.prolific.com/,"en-US,en;q=0.9",8f2plxl0b,5dae395715dc35001698cd44,,,,,,,image_question_trial,,img/map2.png,How many people do you think will go to the bus stop today?,,
4522,"{""Q0"":""A lot""}",survey-text,33,491662,0.0-33.0,14,1,2024-07-18 20:05:49,5db0aa9e43fc9c8a5bdb015af86c687c,108.4.246.248,"Mozilla/5.0 (Windows NT 10.0; Win64; x64) AppleWebKit/537.36 (KHTML, like Gecko) Chrome/126.0.0.0 Safari/537.36",WebKit,Chrome,126.0.0.0,Windows,10.0,https://app.prolific.com/,"en-US,en;q=0.9",8f2plxl0b,5dae395715dc35001698cd44,,,,,,,image_question_trial,,img/map2.png,How much do you think the sign-writer wanted the grass to stay alive?,,
3799,99,html-slider-response,34,495464,0.0-34.0,14,1,2024-07-18 20:05:49,5db0aa9e43fc9c8a5bdb015af86c687c,108.4.246.248,"Mozilla/5.0 (Windows NT 10.0; Win64; x64) AppleWebKit/537.36 (KHTML, like Gecko) Chrome/126.0.0.0 Safari/537.36",WebKit,Chrome,126.0.0.0,Windows,10.0,https://app.prolific.com/,"en-US,en;q=0.9",8f2plxl0b,5dae395715dc35001698cd44,,,,,,"<div style='text-align:center;'><p>In this park, there is a sign which reads 'Do not walk on the grass'.</p><div style='display:flex; justify-content:center; align-items:center;'><img src='img/sign.png' style='width:140px; height:auto; margin-right:10px;' /><img src='img/map3.png' style='width:460px; height:auto;' /></div></div>",slider_trial,,img/map3.png,,50,How important is it to go to the urgent care center?
