rt,response,trial_type,trial_index,time_elapsed,internal_node_id,run_id,condition,recorded_at,source_code_version,ip,user_agent,device,browser,browser_version,platform,platform_version,referer,accept_language,ID,prolific_id,success,timeout,failed_images,failed_audio,failed_video,stimulus,trial_category,question_order,slider_start,stimulus_name
6639,"{""prolific_id"":""669a9a0de19a9b9247fa8fc8""}",survey-text,0,6657,0.0-0.0,2,1,2024-07-20 04:27:35,c42334ae11bd6e373fa9fec6f52302a2,104.251.81.105,Mozilla/5.0 (Windows NT 10.0; Win64; x64; rv:128.0) Gecko/20100101 Firefox/128.0,,Firefox,128.0,Windows,10.0,https://app.prolific.com/,"en-US,en;q=0.5",mrz53222h,669a9a0de19a9b9247fa8fc8,,,,,,,,,,
,,preload,1,14783,0.0-1.0,2,1,2024-07-20 04:27:35,c42334ae11bd6e373fa9fec6f52302a2,104.251.81.105,Mozilla/5.0 (Windows NT 10.0; Win64; x64; rv:128.0) Gecko/20100101 Firefox/128.0,,Firefox,128.0,Windows,10.0,https://app.prolific.com/,"en-US,en;q=0.5",mrz53222h,669a9a0de19a9b9247fa8fc8,true,false,[],[],[],,,,,
9620, ,html-keyboard-response,2,24406,0.0-2.0,2,1,2024-07-20 04:27:35,c42334ae11bd6e373fa9fec6f52302a2,104.251.81.105,Mozilla/5.0 (Windows NT 10.0; Win64; x64; rv:128.0) Gecko/20100101 Firefox/128.0,,Firefox,128.0,Windows,10.0,https://app.prolific.com/,"en-US,en;q=0.5",mrz53222h,669a9a0de19a9b9247fa8fc8,,,,,,"<p style=""text-align:center;width:700px;""> Welcome to the experiment! This study takes most people around 10 minutes to complete. Please complete it in one sitting.</p>",,,,
7655,y,html-keyboard-response,3,32062,0.0-3.0,2,1,2024-07-20 04:27:35,c42334ae11bd6e373fa9fec6f52302a2,104.251.81.105,Mozilla/5.0 (Windows NT 10.0; Win64; x64; rv:128.0) Gecko/20100101 Firefox/128.0,,Firefox,128.0,Windows,10.0,https://app.prolific.com/,"en-US,en;q=0.5",mrz53222h,669a9a0de19a9b9247fa8fc8,,,,,,"<p style = ""font-size:16px;"">MIT Computational Cognitive Science Lab</p><h4>Press the 'y' key to consent.</h4><div style = ""background-color:#f2f2f2;""><h3>Informed Consent Form</h3><div style=""text-align:left;width:700px;""><p style = ""font-size:16px;"">In this study, you will be asked to read a set of instructions that describe a particular scenario, and you will then be asked to perform a simple task relating to that scenario. There will also be comprehension and attention checks. Participants who do not answer these checks correctly cannot be approved. In order to get credit for this study, you must read all the questions fully and answer honestly. You may only complete this study once. If you complete this study multiple times, you will be rejected.</p><p style = ""font-size:16px;"">This study is part of a MIT scientific research project. Your decision to complete this study is voluntary. There is no way for us to identify you. The only information we will have, in addition to your responses, is the time at which you completed the survey. The results of the research may be presented at scientific meetings or published in scientific journals. Pressing the ""Y"" key indicates that you are at least 18 years of age, and agree to complete this study voluntarily. Press the ""Y"" key to confirm your agreement and continue.</p></div>",,,,
80166,"{""instructions1"":""A pack and the surrounding areas in a medium-sized town""}",survey-text,4,112237,0.0-4.0,2,1,2024-07-20 04:27:35,c42334ae11bd6e373fa9fec6f52302a2,104.251.81.105,Mozilla/5.0 (Windows NT 10.0; Win64; x64; rv:128.0) Gecko/20100101 Firefox/128.0,,Firefox,128.0,Windows,10.0,https://app.prolific.com/,"en-US,en;q=0.5",mrz53222h,669a9a0de19a9b9247fa8fc8,,,,,,,instructions,,,
102198,"{""instructions2"":""Yes""}",survey-text,5,214446,0.0-5.0,2,1,2024-07-20 04:27:35,c42334ae11bd6e373fa9fec6f52302a2,104.251.81.105,Mozilla/5.0 (Windows NT 10.0; Win64; x64; rv:128.0) Gecko/20100101 Firefox/128.0,,Firefox,128.0,Windows,10.0,https://app.prolific.com/,"en-US,en;q=0.5",mrz53222h,669a9a0de19a9b9247fa8fc8,,,,,,,instructions,,,
83116,"{""map_attention"":""A person traveling through the park"",""squares_attention"":""Two terrains (grass and sidewalk) and three destinations (urgent care, bus stop, coffee shop)"",""answer_attention"":""Based on your own best judgment based on the map that you see, as well as your <i>own</i> common sense intuitions about towns and these kinds of destinations in general.""}",survey-multi-choice,6,297569,0.0-6.0,2,1,2024-07-20 04:27:35,c42334ae11bd6e373fa9fec6f52302a2,104.251.81.105,Mozilla/5.0 (Windows NT 10.0; Win64; x64; rv:128.0) Gecko/20100101 Firefox/128.0,,Firefox,128.0,Windows,10.0,https://app.prolific.com/,"en-US,en;q=0.5",mrz53222h,669a9a0de19a9b9247fa8fc8,,,,,,,,"[0,1,2]",,
16750,100,html-slider-response,7,314324,0.0-7.0,2,1,2024-07-20 04:27:35,c42334ae11bd6e373fa9fec6f52302a2,104.251.81.105,Mozilla/5.0 (Windows NT 10.0; Win64; x64; rv:128.0) Gecko/20100101 Firefox/128.0,,Firefox,128.0,Windows,10.0,https://app.prolific.com/,"en-US,en;q=0.5",mrz53222h,669a9a0de19a9b9247fa8fc8,,,,,,<div style='display:flex; justify-content:center; align-items:center;'><img src='img/map1_coffee_sidewalk_shortest.png' style='width:600px; height:auto;' /></div>,image_trial,,50,img/map1_coffee_sidewalk_shortest.png
13256,31,html-slider-response,8,327585,0.0-8.0,2,1,2024-07-20 04:27:35,c42334ae11bd6e373fa9fec6f52302a2,104.251.81.105,Mozilla/5.0 (Windows NT 10.0; Win64; x64; rv:128.0) Gecko/20100101 Firefox/128.0,,Firefox,128.0,Windows,10.0,https://app.prolific.com/,"en-US,en;q=0.5",mrz53222h,669a9a0de19a9b9247fa8fc8,,,,,,<div style='display:flex; justify-content:center; align-items:center;'><img src='img/map1_coffee_grass_wandering.png' style='width:600px; height:auto;' /></div>,image_trial,,50,img/map1_coffee_grass_wandering.png
13508,36,html-slider-response,9,341098,0.0-9.0,2,1,2024-07-20 04:27:35,c42334ae11bd6e373fa9fec6f52302a2,104.251.81.105,Mozilla/5.0 (Windows NT 10.0; Win64; x64; rv:128.0) Gecko/20100101 Firefox/128.0,,Firefox,128.0,Windows,10.0,https://app.prolific.com/,"en-US,en;q=0.5",mrz53222h,669a9a0de19a9b9247fa8fc8,,,,,,<div style='display:flex; justify-content:center; align-items:center;'><img src='img/map2_coffee_grass_shortest.png' style='width:600px; height:auto;' /></div>,image_trial,,50,img/map2_coffee_grass_shortest.png
5137,98,html-slider-response,10,346241,0.0-10.0,2,1,2024-07-20 04:27:35,c42334ae11bd6e373fa9fec6f52302a2,104.251.81.105,Mozilla/5.0 (Windows NT 10.0; Win64; x64; rv:128.0) Gecko/20100101 Firefox/128.0,,Firefox,128.0,Windows,10.0,https://app.prolific.com/,"en-US,en;q=0.5",mrz53222h,669a9a0de19a9b9247fa8fc8,,,,,,<div style='display:flex; justify-content:center; align-items:center;'><img src='img/map1_bus_sidewalk_shortest.png' style='width:600px; height:auto;' /></div>,image_trial,,50,img/map1_bus_sidewalk_shortest.png
6100,28,html-slider-response,11,352343,0.0-11.0,2,1,2024-07-20 04:27:35,c42334ae11bd6e373fa9fec6f52302a2,104.251.81.105,Mozilla/5.0 (Windows NT 10.0; Win64; x64; rv:128.0) Gecko/20100101 Firefox/128.0,,Firefox,128.0,Windows,10.0,https://app.prolific.com/,"en-US,en;q=0.5",mrz53222h,669a9a0de19a9b9247fa8fc8,,,,,,<div style='display:flex; justify-content:center; align-items:center;'><img src='img/map3_hospital_grass_shortest.png' style='width:600px; height:auto;' /></div>,image_trial,,50,img/map3_hospital_grass_shortest.png
5734,82,html-slider-response,12,358081,0.0-12.0,2,1,2024-07-20 04:27:35,c42334ae11bd6e373fa9fec6f52302a2,104.251.81.105,Mozilla/5.0 (Windows NT 10.0; Win64; x64; rv:128.0) Gecko/20100101 Firefox/128.0,,Firefox,128.0,Windows,10.0,https://app.prolific.com/,"en-US,en;q=0.5",mrz53222h,669a9a0de19a9b9247fa8fc8,,,,,,<div style='display:flex; justify-content:center; align-items:center;'><img src='img/map3_coffee_sidewalk_shortest.png' style='width:600px; height:auto;' /></div>,image_trial,,50,img/map3_coffee_sidewalk_shortest.png
5844,31,html-slider-response,13,363929,0.0-13.0,2,1,2024-07-20 04:27:35,c42334ae11bd6e373fa9fec6f52302a2,104.251.81.105,Mozilla/5.0 (Windows NT 10.0; Win64; x64; rv:128.0) Gecko/20100101 Firefox/128.0,,Firefox,128.0,Windows,10.0,https://app.prolific.com/,"en-US,en;q=0.5",mrz53222h,669a9a0de19a9b9247fa8fc8,,,,,,<div style='display:flex; justify-content:center; align-items:center;'><img src='img/map3_coffee_grass_shortest.png' style='width:600px; height:auto;' /></div>,image_trial,,50,img/map3_coffee_grass_shortest.png
10969,100,html-slider-response,14,374904,0.0-14.0,2,1,2024-07-20 04:27:35,c42334ae11bd6e373fa9fec6f52302a2,104.251.81.105,Mozilla/5.0 (Windows NT 10.0; Win64; x64; rv:128.0) Gecko/20100101 Firefox/128.0,,Firefox,128.0,Windows,10.0,https://app.prolific.com/,"en-US,en;q=0.5",mrz53222h,669a9a0de19a9b9247fa8fc8,,,,,,<div style='display:flex; justify-content:center; align-items:center;'><img src='img/map1_hospital_sidewalk_shortest.png' style='width:600px; height:auto;' /></div>,image_trial,,50,img/map1_hospital_sidewalk_shortest.png
5973,39,html-slider-response,15,380880,0.0-15.0,2,1,2024-07-20 04:27:35,c42334ae11bd6e373fa9fec6f52302a2,104.251.81.105,Mozilla/5.0 (Windows NT 10.0; Win64; x64; rv:128.0) Gecko/20100101 Firefox/128.0,,Firefox,128.0,Windows,10.0,https://app.prolific.com/,"en-US,en;q=0.5",mrz53222h,669a9a0de19a9b9247fa8fc8,,,,,,<div style='display:flex; justify-content:center; align-items:center;'><img src='img/map3_bus_grass_shortest.png' style='width:600px; height:auto;' /></div>,image_trial,,50,img/map3_bus_grass_shortest.png
6853,37,html-slider-response,16,387737,0.0-16.0,2,1,2024-07-20 04:27:35,c42334ae11bd6e373fa9fec6f52302a2,104.251.81.105,Mozilla/5.0 (Windows NT 10.0; Win64; x64; rv:128.0) Gecko/20100101 Firefox/128.0,,Firefox,128.0,Windows,10.0,https://app.prolific.com/,"en-US,en;q=0.5",mrz53222h,669a9a0de19a9b9247fa8fc8,,,,,,<div style='display:flex; justify-content:center; align-items:center;'><img src='img/map3_bus_grass_wandering.png' style='width:600px; height:auto;' /></div>,image_trial,,50,img/map3_bus_grass_wandering.png
4410,92,html-slider-response,17,392149,0.0-17.0,2,1,2024-07-20 04:27:35,c42334ae11bd6e373fa9fec6f52302a2,104.251.81.105,Mozilla/5.0 (Windows NT 10.0; Win64; x64; rv:128.0) Gecko/20100101 Firefox/128.0,,Firefox,128.0,Windows,10.0,https://app.prolific.com/,"en-US,en;q=0.5",mrz53222h,669a9a0de19a9b9247fa8fc8,,,,,,<div style='display:flex; justify-content:center; align-items:center;'><img src='img/map2_hospital_sidewalk_shortest.png' style='width:600px; height:auto;' /></div>,image_trial,,50,img/map2_hospital_sidewalk_shortest.png
4228,28,html-slider-response,18,396381,0.0-18.0,2,1,2024-07-20 04:27:35,c42334ae11bd6e373fa9fec6f52302a2,104.251.81.105,Mozilla/5.0 (Windows NT 10.0; Win64; x64; rv:128.0) Gecko/20100101 Firefox/128.0,,Firefox,128.0,Windows,10.0,https://app.prolific.com/,"en-US,en;q=0.5",mrz53222h,669a9a0de19a9b9247fa8fc8,,,,,,<div style='display:flex; justify-content:center; align-items:center;'><img src='img/map3_coffee_grass_wandering.png' style='width:600px; height:auto;' /></div>,image_trial,,50,img/map3_coffee_grass_wandering.png
5116,89,html-slider-response,19,401498,0.0-19.0,2,1,2024-07-20 04:27:35,c42334ae11bd6e373fa9fec6f52302a2,104.251.81.105,Mozilla/5.0 (Windows NT 10.0; Win64; x64; rv:128.0) Gecko/20100101 Firefox/128.0,,Firefox,128.0,Windows,10.0,https://app.prolific.com/,"en-US,en;q=0.5",mrz53222h,669a9a0de19a9b9247fa8fc8,,,,,,<div style='display:flex; justify-content:center; align-items:center;'><img src='img/map2_coffee_sidewalk_shortest.png' style='width:600px; height:auto;' /></div>,image_trial,,50,img/map2_coffee_sidewalk_shortest.png
6113,29,html-slider-response,20,407615,0.0-20.0,2,1,2024-07-20 04:27:35,c42334ae11bd6e373fa9fec6f52302a2,104.251.81.105,Mozilla/5.0 (Windows NT 10.0; Win64; x64; rv:128.0) Gecko/20100101 Firefox/128.0,,Firefox,128.0,Windows,10.0,https://app.prolific.com/,"en-US,en;q=0.5",mrz53222h,669a9a0de19a9b9247fa8fc8,,,,,,<div style='display:flex; justify-content:center; align-items:center;'><img src='img/map1_hospital_grass_wandering.png' style='width:600px; height:auto;' /></div>,image_trial,,50,img/map1_hospital_grass_wandering.png
5253,35,html-slider-response,21,412876,0.0-21.0,2,1,2024-07-20 04:27:35,c42334ae11bd6e373fa9fec6f52302a2,104.251.81.105,Mozilla/5.0 (Windows NT 10.0; Win64; x64; rv:128.0) Gecko/20100101 Firefox/128.0,,Firefox,128.0,Windows,10.0,https://app.prolific.com/,"en-US,en;q=0.5",mrz53222h,669a9a0de19a9b9247fa8fc8,,,,,,<div style='display:flex; justify-content:center; align-items:center;'><img src='img/map2_hospital_grass_shortest.png' style='width:600px; height:auto;' /></div>,image_trial,,50,img/map2_hospital_grass_shortest.png
6120,84,html-slider-response,22,419000,0.0-22.0,2,1,2024-07-20 04:27:35,c42334ae11bd6e373fa9fec6f52302a2,104.251.81.105,Mozilla/5.0 (Windows NT 10.0; Win64; x64; rv:128.0) Gecko/20100101 Firefox/128.0,,Firefox,128.0,Windows,10.0,https://app.prolific.com/,"en-US,en;q=0.5",mrz53222h,669a9a0de19a9b9247fa8fc8,,,,,,<div style='display:flex; justify-content:center; align-items:center;'><img src='img/map3_bus_sidewalk_shortest.png' style='width:600px; height:auto;' /></div>,image_trial,,50,img/map3_bus_sidewalk_shortest.png
6494,26,html-slider-response,23,425498,0.0-23.0,2,1,2024-07-20 04:27:35,c42334ae11bd6e373fa9fec6f52302a2,104.251.81.105,Mozilla/5.0 (Windows NT 10.0; Win64; x64; rv:128.0) Gecko/20100101 Firefox/128.0,,Firefox,128.0,Windows,10.0,https://app.prolific.com/,"en-US,en;q=0.5",mrz53222h,669a9a0de19a9b9247fa8fc8,,,,,,<div style='display:flex; justify-content:center; align-items:center;'><img src='img/map3_hospital_grass_wandering.png' style='width:600px; height:auto;' /></div>,image_trial,,50,img/map3_hospital_grass_wandering.png
6544,24,html-slider-response,24,432045,0.0-24.0,2,1,2024-07-20 04:27:35,c42334ae11bd6e373fa9fec6f52302a2,104.251.81.105,Mozilla/5.0 (Windows NT 10.0; Win64; x64; rv:128.0) Gecko/20100101 Firefox/128.0,,Firefox,128.0,Windows,10.0,https://app.prolific.com/,"en-US,en;q=0.5",mrz53222h,669a9a0de19a9b9247fa8fc8,,,,,,<div style='display:flex; justify-content:center; align-items:center;'><img src='img/map1_bus_grass_wandering.png' style='width:600px; height:auto;' /></div>,image_trial,,50,img/map1_bus_grass_wandering.png
4451,35,html-slider-response,25,436502,0.0-25.0,2,1,2024-07-20 04:27:35,c42334ae11bd6e373fa9fec6f52302a2,104.251.81.105,Mozilla/5.0 (Windows NT 10.0; Win64; x64; rv:128.0) Gecko/20100101 Firefox/128.0,,Firefox,128.0,Windows,10.0,https://app.prolific.com/,"en-US,en;q=0.5",mrz53222h,669a9a0de19a9b9247fa8fc8,,,,,,<div style='display:flex; justify-content:center; align-items:center;'><img src='img/map2_coffee_grass_wandering.png' style='width:600px; height:auto;' /></div>,image_trial,,50,img/map2_coffee_grass_wandering.png
4923,33,html-slider-response,26,441431,0.0-26.0,2,1,2024-07-20 04:27:35,c42334ae11bd6e373fa9fec6f52302a2,104.251.81.105,Mozilla/5.0 (Windows NT 10.0; Win64; x64; rv:128.0) Gecko/20100101 Firefox/128.0,,Firefox,128.0,Windows,10.0,https://app.prolific.com/,"en-US,en;q=0.5",mrz53222h,669a9a0de19a9b9247fa8fc8,,,,,,<div style='display:flex; justify-content:center; align-items:center;'><img src='img/map2_hospital_grass_wandering.png' style='width:600px; height:auto;' /></div>,image_trial,,50,img/map2_hospital_grass_wandering.png
3910,18,html-slider-response,27,445345,0.0-27.0,2,1,2024-07-20 04:27:35,c42334ae11bd6e373fa9fec6f52302a2,104.251.81.105,Mozilla/5.0 (Windows NT 10.0; Win64; x64; rv:128.0) Gecko/20100101 Firefox/128.0,,Firefox,128.0,Windows,10.0,https://app.prolific.com/,"en-US,en;q=0.5",mrz53222h,669a9a0de19a9b9247fa8fc8,,,,,,<div style='display:flex; justify-content:center; align-items:center;'><img src='img/map1_hospital_grass_shortest.png' style='width:600px; height:auto;' /></div>,image_trial,,50,img/map1_hospital_grass_shortest.png
3525,32,html-slider-response,28,448874,0.0-28.0,2,1,2024-07-20 04:27:35,c42334ae11bd6e373fa9fec6f52302a2,104.251.81.105,Mozilla/5.0 (Windows NT 10.0; Win64; x64; rv:128.0) Gecko/20100101 Firefox/128.0,,Firefox,128.0,Windows,10.0,https://app.prolific.com/,"en-US,en;q=0.5",mrz53222h,669a9a0de19a9b9247fa8fc8,,,,,,<div style='display:flex; justify-content:center; align-items:center;'><img src='img/map1_coffee_grass_shortest.png' style='width:600px; height:auto;' /></div>,image_trial,,50,img/map1_coffee_grass_shortest.png
5398,71,html-slider-response,29,454276,0.0-29.0,2,1,2024-07-20 04:27:35,c42334ae11bd6e373fa9fec6f52302a2,104.251.81.105,Mozilla/5.0 (Windows NT 10.0; Win64; x64; rv:128.0) Gecko/20100101 Firefox/128.0,,Firefox,128.0,Windows,10.0,https://app.prolific.com/,"en-US,en;q=0.5",mrz53222h,669a9a0de19a9b9247fa8fc8,,,,,,<div style='display:flex; justify-content:center; align-items:center;'><img src='img/map3_hospital_sidewalk_shortest.png' style='width:600px; height:auto;' /></div>,image_trial,,50,img/map3_hospital_sidewalk_shortest.png
4288,32,html-slider-response,30,458568,0.0-30.0,2,1,2024-07-20 04:27:35,c42334ae11bd6e373fa9fec6f52302a2,104.251.81.105,Mozilla/5.0 (Windows NT 10.0; Win64; x64; rv:128.0) Gecko/20100101 Firefox/128.0,,Firefox,128.0,Windows,10.0,https://app.prolific.com/,"en-US,en;q=0.5",mrz53222h,669a9a0de19a9b9247fa8fc8,,,,,,<div style='display:flex; justify-content:center; align-items:center;'><img src='img/map2_bus_grass_wandering.png' style='width:600px; height:auto;' /></div>,image_trial,,50,img/map2_bus_grass_wandering.png
3884,28,html-slider-response,31,462454,0.0-31.0,2,1,2024-07-20 04:27:35,c42334ae11bd6e373fa9fec6f52302a2,104.251.81.105,Mozilla/5.0 (Windows NT 10.0; Win64; x64; rv:128.0) Gecko/20100101 Firefox/128.0,,Firefox,128.0,Windows,10.0,https://app.prolific.com/,"en-US,en;q=0.5",mrz53222h,669a9a0de19a9b9247fa8fc8,,,,,,<div style='display:flex; justify-content:center; align-items:center;'><img src='img/map2_bus_grass_shortest.png' style='width:600px; height:auto;' /></div>,image_trial,,50,img/map2_bus_grass_shortest.png
3924,40,html-slider-response,32,466382,0.0-32.0,2,1,2024-07-20 04:27:35,c42334ae11bd6e373fa9fec6f52302a2,104.251.81.105,Mozilla/5.0 (Windows NT 10.0; Win64; x64; rv:128.0) Gecko/20100101 Firefox/128.0,,Firefox,128.0,Windows,10.0,https://app.prolific.com/,"en-US,en;q=0.5",mrz53222h,669a9a0de19a9b9247fa8fc8,,,,,,<div style='display:flex; justify-content:center; align-items:center;'><img src='img/map1_bus_grass_shortest.png' style='width:600px; height:auto;' /></div>,image_trial,,50,img/map1_bus_grass_shortest.png
3982,87,html-slider-response,33,470370,0.0-33.0,2,1,2024-07-20 04:27:35,c42334ae11bd6e373fa9fec6f52302a2,104.251.81.105,Mozilla/5.0 (Windows NT 10.0; Win64; x64; rv:128.0) Gecko/20100101 Firefox/128.0,,Firefox,128.0,Windows,10.0,https://app.prolific.com/,"en-US,en;q=0.5",mrz53222h,669a9a0de19a9b9247fa8fc8,,,,,,<div style='display:flex; justify-content:center; align-items:center;'><img src='img/map2_bus_sidewalk_shortest.png' style='width:600px; height:auto;' /></div>,image_trial,,50,img/map2_bus_sidewalk_shortest.png
27810,"[{""name"":""understand"",""value"":""yes""},{""name"":""problems"",""value"":""No""},{""name"":""age"",""value"":""20""},{""name"":""gender"",""value"":""male""},{""name"":""comments"",""value"":""No""}]",survey-html-form,34,498183,0.0-34.0,2,1,2024-07-20 04:27:35,c42334ae11bd6e373fa9fec6f52302a2,104.251.81.105,Mozilla/5.0 (Windows NT 10.0; Win64; x64; rv:128.0) Gecko/20100101 Firefox/128.0,,Firefox,128.0,Windows,10.0,https://app.prolific.com/,"en-US,en;q=0.5",mrz53222h,669a9a0de19a9b9247fa8fc8,,,,,,,debrief,,,
17635,"{""Q0"":""mrz53222h""}",survey-text,35,515824,0.0-35.0,2,1,2024-07-20 04:27:35,c42334ae11bd6e373fa9fec6f52302a2,104.251.81.105,Mozilla/5.0 (Windows NT 10.0; Win64; x64; rv:128.0) Gecko/20100101 Firefox/128.0,,Firefox,128.0,Windows,10.0,https://app.prolific.com/,"en-US,en;q=0.5",mrz53222h,669a9a0de19a9b9247fa8fc8,,,,,,,,,,
2368,"{""prolific_id"":""613fb653aa6f033cb05cc587""}",survey-text,0,2393,0.0-0.0,1,1,2024-07-20 04:27:16,c42334ae11bd6e373fa9fec6f52302a2,70.140.215.141,"Mozilla/5.0 (Macintosh; Intel Mac OS X 10_15_7) AppleWebKit/537.36 (KHTML, like Gecko) Chrome/126.0.0.0 Safari/537.36",Macintosh,Chrome,126.0.0.0,OS X,10_15_7,https://app.prolific.com/,"en-US,en;q=0.9",mmyate9cf,613fb653aa6f033cb05cc587,,,,,,,,,,
,,preload,1,3332,0.0-1.0,1,1,2024-07-20 04:27:16,c42334ae11bd6e373fa9fec6f52302a2,70.140.215.141,"Mozilla/5.0 (Macintosh; Intel Mac OS X 10_15_7) AppleWebKit/537.36 (KHTML, like Gecko) Chrome/126.0.0.0 Safari/537.36",Macintosh,Chrome,126.0.0.0,OS X,10_15_7,https://app.prolific.com/,"en-US,en;q=0.9",mmyate9cf,613fb653aa6f033cb05cc587,true,false,[],[],[],,,,,
1221, ,html-keyboard-response,2,4554,0.0-2.0,1,1,2024-07-20 04:27:16,c42334ae11bd6e373fa9fec6f52302a2,70.140.215.141,"Mozilla/5.0 (Macintosh; Intel Mac OS X 10_15_7) AppleWebKit/537.36 (KHTML, like Gecko) Chrome/126.0.0.0 Safari/537.36",Macintosh,Chrome,126.0.0.0,OS X,10_15_7,https://app.prolific.com/,"en-US,en;q=0.9",mmyate9cf,613fb653aa6f033cb05cc587,,,,,,"<p style=""text-align:center;width:700px;""> Welcome to the experiment! This study takes most people around 10 minutes to complete. Please complete it in one sitting.</p>",,,,
2483,y,html-keyboard-response,3,7038,0.0-3.0,1,1,2024-07-20 04:27:16,c42334ae11bd6e373fa9fec6f52302a2,70.140.215.141,"Mozilla/5.0 (Macintosh; Intel Mac OS X 10_15_7) AppleWebKit/537.36 (KHTML, like Gecko) Chrome/126.0.0.0 Safari/537.36",Macintosh,Chrome,126.0.0.0,OS X,10_15_7,https://app.prolific.com/,"en-US,en;q=0.9",mmyate9cf,613fb653aa6f033cb05cc587,,,,,,"<p style = ""font-size:16px;"">MIT Computational Cognitive Science Lab</p><h4>Press the 'y' key to consent.</h4><div style = ""background-color:#f2f2f2;""><h3>Informed Consent Form</h3><div style=""text-align:left;width:700px;""><p style = ""font-size:16px;"">In this study, you will be asked to read a set of instructions that describe a particular scenario, and you will then be asked to perform a simple task relating to that scenario. There will also be comprehension and attention checks. Participants who do not answer these checks correctly cannot be approved. In order to get credit for this study, you must read all the questions fully and answer honestly. You may only complete this study once. If you complete this study multiple times, you will be rejected.</p><p style = ""font-size:16px;"">This study is part of a MIT scientific research project. Your decision to complete this study is voluntary. There is no way for us to identify you. The only information we will have, in addition to your responses, is the time at which you completed the survey. The results of the research may be presented at scientific meetings or published in scientific journals. Pressing the ""Y"" key indicates that you are at least 18 years of age, and agree to complete this study voluntarily. Press the ""Y"" key to confirm your agreement and continue.</p></div>",,,,
36921,"{""instructions1"":""a park and the surrounding areas in a medium-sized town""}",survey-text,4,43974,0.0-4.0,1,1,2024-07-20 04:27:16,c42334ae11bd6e373fa9fec6f52302a2,70.140.215.141,"Mozilla/5.0 (Macintosh; Intel Mac OS X 10_15_7) AppleWebKit/537.36 (KHTML, like Gecko) Chrome/126.0.0.0 Safari/537.36",Macintosh,Chrome,126.0.0.0,OS X,10_15_7,https://app.prolific.com/,"en-US,en;q=0.9",mmyate9cf,613fb653aa6f033cb05cc587,,,,,,,instructions,,,
12681,"{""instructions2"":""yes""}",survey-text,5,56659,0.0-5.0,1,1,2024-07-20 04:27:16,c42334ae11bd6e373fa9fec6f52302a2,70.140.215.141,"Mozilla/5.0 (Macintosh; Intel Mac OS X 10_15_7) AppleWebKit/537.36 (KHTML, like Gecko) Chrome/126.0.0.0 Safari/537.36",Macintosh,Chrome,126.0.0.0,OS X,10_15_7,https://app.prolific.com/,"en-US,en;q=0.9",mmyate9cf,613fb653aa6f033cb05cc587,,,,,,,instructions,,,
24646,"{""map_attention"":""Maps showing a small city, park, and destinations"",""squares_attention"":""Two terrains (grass and sidewalk) and three destinations (urgent care, bus stop, coffee shop)"",""answer_attention"":""Based on what you think the average person living in this town would think""}",survey-multi-choice,6,81308,0.0-6.0,1,1,2024-07-20 04:27:16,c42334ae11bd6e373fa9fec6f52302a2,70.140.215.141,"Mozilla/5.0 (Macintosh; Intel Mac OS X 10_15_7) AppleWebKit/537.36 (KHTML, like Gecko) Chrome/126.0.0.0 Safari/537.36",Macintosh,Chrome,126.0.0.0,OS X,10_15_7,https://app.prolific.com/,"en-US,en;q=0.9",mmyate9cf,613fb653aa6f033cb05cc587,,,,,,,,"[0,1,2]",,
6762,91,html-slider-response,7,88074,0.0-7.0,1,1,2024-07-20 04:27:16,c42334ae11bd6e373fa9fec6f52302a2,70.140.215.141,"Mozilla/5.0 (Macintosh; Intel Mac OS X 10_15_7) AppleWebKit/537.36 (KHTML, like Gecko) Chrome/126.0.0.0 Safari/537.36",Macintosh,Chrome,126.0.0.0,OS X,10_15_7,https://app.prolific.com/,"en-US,en;q=0.9",mmyate9cf,613fb653aa6f033cb05cc587,,,,,,<div style='display:flex; justify-content:center; align-items:center;'><img src='img/map1_hospital_grass_shortest.png' style='width:600px; height:auto;' /></div>,image_trial,,50,img/map1_hospital_grass_shortest.png
5982,37,html-slider-response,8,94058,0.0-8.0,1,1,2024-07-20 04:27:16,c42334ae11bd6e373fa9fec6f52302a2,70.140.215.141,"Mozilla/5.0 (Macintosh; Intel Mac OS X 10_15_7) AppleWebKit/537.36 (KHTML, like Gecko) Chrome/126.0.0.0 Safari/537.36",Macintosh,Chrome,126.0.0.0,OS X,10_15_7,https://app.prolific.com/,"en-US,en;q=0.9",mmyate9cf,613fb653aa6f033cb05cc587,,,,,,<div style='display:flex; justify-content:center; align-items:center;'><img src='img/map2_hospital_grass_wandering.png' style='width:600px; height:auto;' /></div>,image_trial,,50,img/map2_hospital_grass_wandering.png
4148,54,html-slider-response,9,98208,0.0-9.0,1,1,2024-07-20 04:27:16,c42334ae11bd6e373fa9fec6f52302a2,70.140.215.141,"Mozilla/5.0 (Macintosh; Intel Mac OS X 10_15_7) AppleWebKit/537.36 (KHTML, like Gecko) Chrome/126.0.0.0 Safari/537.36",Macintosh,Chrome,126.0.0.0,OS X,10_15_7,https://app.prolific.com/,"en-US,en;q=0.9",mmyate9cf,613fb653aa6f033cb05cc587,,,,,,<div style='display:flex; justify-content:center; align-items:center;'><img src='img/map1_coffee_sidewalk_shortest.png' style='width:600px; height:auto;' /></div>,image_trial,,50,img/map1_coffee_sidewalk_shortest.png
5516,51,html-slider-response,10,103725,0.0-10.0,1,1,2024-07-20 04:27:16,c42334ae11bd6e373fa9fec6f52302a2,70.140.215.141,"Mozilla/5.0 (Macintosh; Intel Mac OS X 10_15_7) AppleWebKit/537.36 (KHTML, like Gecko) Chrome/126.0.0.0 Safari/537.36",Macintosh,Chrome,126.0.0.0,OS X,10_15_7,https://app.prolific.com/,"en-US,en;q=0.9",mmyate9cf,613fb653aa6f033cb05cc587,,,,,,<div style='display:flex; justify-content:center; align-items:center;'><img src='img/map3_hospital_grass_wandering.png' style='width:600px; height:auto;' /></div>,image_trial,,50,img/map3_hospital_grass_wandering.png
4548,74,html-slider-response,11,108275,0.0-11.0,1,1,2024-07-20 04:27:16,c42334ae11bd6e373fa9fec6f52302a2,70.140.215.141,"Mozilla/5.0 (Macintosh; Intel Mac OS X 10_15_7) AppleWebKit/537.36 (KHTML, like Gecko) Chrome/126.0.0.0 Safari/537.36",Macintosh,Chrome,126.0.0.0,OS X,10_15_7,https://app.prolific.com/,"en-US,en;q=0.9",mmyate9cf,613fb653aa6f033cb05cc587,,,,,,<div style='display:flex; justify-content:center; align-items:center;'><img src='img/map3_bus_grass_shortest.png' style='width:600px; height:auto;' /></div>,image_trial,,50,img/map3_bus_grass_shortest.png
4332,41,html-slider-response,12,112609,0.0-12.0,1,1,2024-07-20 04:27:16,c42334ae11bd6e373fa9fec6f52302a2,70.140.215.141,"Mozilla/5.0 (Macintosh; Intel Mac OS X 10_15_7) AppleWebKit/537.36 (KHTML, like Gecko) Chrome/126.0.0.0 Safari/537.36",Macintosh,Chrome,126.0.0.0,OS X,10_15_7,https://app.prolific.com/,"en-US,en;q=0.9",mmyate9cf,613fb653aa6f033cb05cc587,,,,,,<div style='display:flex; justify-content:center; align-items:center;'><img src='img/map1_coffee_grass_wandering.png' style='width:600px; height:auto;' /></div>,image_trial,,50,img/map1_coffee_grass_wandering.png
3665,91,html-slider-response,13,116275,0.0-13.0,1,1,2024-07-20 04:27:16,c42334ae11bd6e373fa9fec6f52302a2,70.140.215.141,"Mozilla/5.0 (Macintosh; Intel Mac OS X 10_15_7) AppleWebKit/537.36 (KHTML, like Gecko) Chrome/126.0.0.0 Safari/537.36",Macintosh,Chrome,126.0.0.0,OS X,10_15_7,https://app.prolific.com/,"en-US,en;q=0.9",mmyate9cf,613fb653aa6f033cb05cc587,,,,,,<div style='display:flex; justify-content:center; align-items:center;'><img src='img/map3_coffee_sidewalk_shortest.png' style='width:600px; height:auto;' /></div>,image_trial,,50,img/map3_coffee_sidewalk_shortest.png
5182,55,html-slider-response,14,121458,0.0-14.0,1,1,2024-07-20 04:27:16,c42334ae11bd6e373fa9fec6f52302a2,70.140.215.141,"Mozilla/5.0 (Macintosh; Intel Mac OS X 10_15_7) AppleWebKit/537.36 (KHTML, like Gecko) Chrome/126.0.0.0 Safari/537.36",Macintosh,Chrome,126.0.0.0,OS X,10_15_7,https://app.prolific.com/,"en-US,en;q=0.9",mmyate9cf,613fb653aa6f033cb05cc587,,,,,,<div style='display:flex; justify-content:center; align-items:center;'><img src='img/map3_coffee_grass_shortest.png' style='width:600px; height:auto;' /></div>,image_trial,,50,img/map3_coffee_grass_shortest.png
4665,81,html-slider-response,15,126125,0.0-15.0,1,1,2024-07-20 04:27:16,c42334ae11bd6e373fa9fec6f52302a2,70.140.215.141,"Mozilla/5.0 (Macintosh; Intel Mac OS X 10_15_7) AppleWebKit/537.36 (KHTML, like Gecko) Chrome/126.0.0.0 Safari/537.36",Macintosh,Chrome,126.0.0.0,OS X,10_15_7,https://app.prolific.com/,"en-US,en;q=0.9",mmyate9cf,613fb653aa6f033cb05cc587,,,,,,<div style='display:flex; justify-content:center; align-items:center;'><img src='img/map2_coffee_sidewalk_shortest.png' style='width:600px; height:auto;' /></div>,image_trial,,50,img/map2_coffee_sidewalk_shortest.png
3948,49,html-slider-response,16,130075,0.0-16.0,1,1,2024-07-20 04:27:16,c42334ae11bd6e373fa9fec6f52302a2,70.140.215.141,"Mozilla/5.0 (Macintosh; Intel Mac OS X 10_15_7) AppleWebKit/537.36 (KHTML, like Gecko) Chrome/126.0.0.0 Safari/537.36",Macintosh,Chrome,126.0.0.0,OS X,10_15_7,https://app.prolific.com/,"en-US,en;q=0.9",mmyate9cf,613fb653aa6f033cb05cc587,,,,,,<div style='display:flex; justify-content:center; align-items:center;'><img src='img/map2_bus_grass_shortest.png' style='width:600px; height:auto;' /></div>,image_trial,,50,img/map2_bus_grass_shortest.png
7131,95,html-slider-response,17,137208,0.0-17.0,1,1,2024-07-20 04:27:16,c42334ae11bd6e373fa9fec6f52302a2,70.140.215.141,"Mozilla/5.0 (Macintosh; Intel Mac OS X 10_15_7) AppleWebKit/537.36 (KHTML, like Gecko) Chrome/126.0.0.0 Safari/537.36",Macintosh,Chrome,126.0.0.0,OS X,10_15_7,https://app.prolific.com/,"en-US,en;q=0.9",mmyate9cf,613fb653aa6f033cb05cc587,,,,,,<div style='display:flex; justify-content:center; align-items:center;'><img src='img/map2_hospital_grass_shortest.png' style='width:600px; height:auto;' /></div>,image_trial,,50,img/map2_hospital_grass_shortest.png
16615,40,html-slider-response,18,153825,0.0-18.0,1,1,2024-07-20 04:27:16,c42334ae11bd6e373fa9fec6f52302a2,70.140.215.141,"Mozilla/5.0 (Macintosh; Intel Mac OS X 10_15_7) AppleWebKit/537.36 (KHTML, like Gecko) Chrome/126.0.0.0 Safari/537.36",Macintosh,Chrome,126.0.0.0,OS X,10_15_7,https://app.prolific.com/,"en-US,en;q=0.9",mmyate9cf,613fb653aa6f033cb05cc587,,,,,,<div style='display:flex; justify-content:center; align-items:center;'><img src='img/map1_hospital_grass_wandering.png' style='width:600px; height:auto;' /></div>,image_trial,,50,img/map1_hospital_grass_wandering.png
5799,35,html-slider-response,19,159625,0.0-19.0,1,1,2024-07-20 04:27:16,c42334ae11bd6e373fa9fec6f52302a2,70.140.215.141,"Mozilla/5.0 (Macintosh; Intel Mac OS X 10_15_7) AppleWebKit/537.36 (KHTML, like Gecko) Chrome/126.0.0.0 Safari/537.36",Macintosh,Chrome,126.0.0.0,OS X,10_15_7,https://app.prolific.com/,"en-US,en;q=0.9",mmyate9cf,613fb653aa6f033cb05cc587,,,,,,<div style='display:flex; justify-content:center; align-items:center;'><img src='img/map2_coffee_grass_wandering.png' style='width:600px; height:auto;' /></div>,image_trial,,50,img/map2_coffee_grass_wandering.png
4865,41,html-slider-response,20,164492,0.0-20.0,1,1,2024-07-20 04:27:16,c42334ae11bd6e373fa9fec6f52302a2,70.140.215.141,"Mozilla/5.0 (Macintosh; Intel Mac OS X 10_15_7) AppleWebKit/537.36 (KHTML, like Gecko) Chrome/126.0.0.0 Safari/537.36",Macintosh,Chrome,126.0.0.0,OS X,10_15_7,https://app.prolific.com/,"en-US,en;q=0.9",mmyate9cf,613fb653aa6f033cb05cc587,,,,,,<div style='display:flex; justify-content:center; align-items:center;'><img src='img/map1_bus_grass_shortest.png' style='width:600px; height:auto;' /></div>,image_trial,,50,img/map1_bus_grass_shortest.png
2665,74,html-slider-response,21,167159,0.0-21.0,1,1,2024-07-20 04:27:16,c42334ae11bd6e373fa9fec6f52302a2,70.140.215.141,"Mozilla/5.0 (Macintosh; Intel Mac OS X 10_15_7) AppleWebKit/537.36 (KHTML, like Gecko) Chrome/126.0.0.0 Safari/537.36",Macintosh,Chrome,126.0.0.0,OS X,10_15_7,https://app.prolific.com/,"en-US,en;q=0.9",mmyate9cf,613fb653aa6f033cb05cc587,,,,,,<div style='display:flex; justify-content:center; align-items:center;'><img src='img/map3_hospital_grass_shortest.png' style='width:600px; height:auto;' /></div>,image_trial,,50,img/map3_hospital_grass_shortest.png
4299,55,html-slider-response,22,171459,0.0-22.0,1,1,2024-07-20 04:27:16,c42334ae11bd6e373fa9fec6f52302a2,70.140.215.141,"Mozilla/5.0 (Macintosh; Intel Mac OS X 10_15_7) AppleWebKit/537.36 (KHTML, like Gecko) Chrome/126.0.0.0 Safari/537.36",Macintosh,Chrome,126.0.0.0,OS X,10_15_7,https://app.prolific.com/,"en-US,en;q=0.9",mmyate9cf,613fb653aa6f033cb05cc587,,,,,,<div style='display:flex; justify-content:center; align-items:center;'><img src='img/map2_hospital_sidewalk_shortest.png' style='width:600px; height:auto;' /></div>,image_trial,,50,img/map2_hospital_sidewalk_shortest.png
7797,34,html-slider-response,23,179259,0.0-23.0,1,1,2024-07-20 04:27:16,c42334ae11bd6e373fa9fec6f52302a2,70.140.215.141,"Mozilla/5.0 (Macintosh; Intel Mac OS X 10_15_7) AppleWebKit/537.36 (KHTML, like Gecko) Chrome/126.0.0.0 Safari/537.36",Macintosh,Chrome,126.0.0.0,OS X,10_15_7,https://app.prolific.com/,"en-US,en;q=0.9",mmyate9cf,613fb653aa6f033cb05cc587,,,,,,<div style='display:flex; justify-content:center; align-items:center;'><img src='img/map3_coffee_grass_wandering.png' style='width:600px; height:auto;' /></div>,image_trial,,50,img/map3_coffee_grass_wandering.png
2949,55,html-slider-response,24,182209,0.0-24.0,1,1,2024-07-20 04:27:16,c42334ae11bd6e373fa9fec6f52302a2,70.140.215.141,"Mozilla/5.0 (Macintosh; Intel Mac OS X 10_15_7) AppleWebKit/537.36 (KHTML, like Gecko) Chrome/126.0.0.0 Safari/537.36",Macintosh,Chrome,126.0.0.0,OS X,10_15_7,https://app.prolific.com/,"en-US,en;q=0.9",mmyate9cf,613fb653aa6f033cb05cc587,,,,,,<div style='display:flex; justify-content:center; align-items:center;'><img src='img/map1_coffee_grass_shortest.png' style='width:600px; height:auto;' /></div>,image_trial,,50,img/map1_coffee_grass_shortest.png
3598,98,html-slider-response,25,185809,0.0-25.0,1,1,2024-07-20 04:27:16,c42334ae11bd6e373fa9fec6f52302a2,70.140.215.141,"Mozilla/5.0 (Macintosh; Intel Mac OS X 10_15_7) AppleWebKit/537.36 (KHTML, like Gecko) Chrome/126.0.0.0 Safari/537.36",Macintosh,Chrome,126.0.0.0,OS X,10_15_7,https://app.prolific.com/,"en-US,en;q=0.9",mmyate9cf,613fb653aa6f033cb05cc587,,,,,,<div style='display:flex; justify-content:center; align-items:center;'><img src='img/map1_bus_sidewalk_shortest.png' style='width:600px; height:auto;' /></div>,image_trial,,50,img/map1_bus_sidewalk_shortest.png
3148,97,html-slider-response,26,188959,0.0-26.0,1,1,2024-07-20 04:27:16,c42334ae11bd6e373fa9fec6f52302a2,70.140.215.141,"Mozilla/5.0 (Macintosh; Intel Mac OS X 10_15_7) AppleWebKit/537.36 (KHTML, like Gecko) Chrome/126.0.0.0 Safari/537.36",Macintosh,Chrome,126.0.0.0,OS X,10_15_7,https://app.prolific.com/,"en-US,en;q=0.9",mmyate9cf,613fb653aa6f033cb05cc587,,,,,,<div style='display:flex; justify-content:center; align-items:center;'><img src='img/map2_bus_sidewalk_shortest.png' style='width:600px; height:auto;' /></div>,image_trial,,50,img/map2_bus_sidewalk_shortest.png
4298,39,html-slider-response,27,193260,0.0-27.0,1,1,2024-07-20 04:27:16,c42334ae11bd6e373fa9fec6f52302a2,70.140.215.141,"Mozilla/5.0 (Macintosh; Intel Mac OS X 10_15_7) AppleWebKit/537.36 (KHTML, like Gecko) Chrome/126.0.0.0 Safari/537.36",Macintosh,Chrome,126.0.0.0,OS X,10_15_7,https://app.prolific.com/,"en-US,en;q=0.9",mmyate9cf,613fb653aa6f033cb05cc587,,,,,,<div style='display:flex; justify-content:center; align-items:center;'><img src='img/map3_hospital_sidewalk_shortest.png' style='width:600px; height:auto;' /></div>,image_trial,,50,img/map3_hospital_sidewalk_shortest.png
3616,70,html-slider-response,28,196877,0.0-28.0,1,1,2024-07-20 04:27:16,c42334ae11bd6e373fa9fec6f52302a2,70.140.215.141,"Mozilla/5.0 (Macintosh; Intel Mac OS X 10_15_7) AppleWebKit/537.36 (KHTML, like Gecko) Chrome/126.0.0.0 Safari/537.36",Macintosh,Chrome,126.0.0.0,OS X,10_15_7,https://app.prolific.com/,"en-US,en;q=0.9",mmyate9cf,613fb653aa6f033cb05cc587,,,,,,<div style='display:flex; justify-content:center; align-items:center;'><img src='img/map2_coffee_grass_shortest.png' style='width:600px; height:auto;' /></div>,image_trial,,50,img/map2_coffee_grass_shortest.png
5931,100,html-slider-response,29,202810,0.0-29.0,1,1,2024-07-20 04:27:16,c42334ae11bd6e373fa9fec6f52302a2,70.140.215.141,"Mozilla/5.0 (Macintosh; Intel Mac OS X 10_15_7) AppleWebKit/537.36 (KHTML, like Gecko) Chrome/126.0.0.0 Safari/537.36",Macintosh,Chrome,126.0.0.0,OS X,10_15_7,https://app.prolific.com/,"en-US,en;q=0.9",mmyate9cf,613fb653aa6f033cb05cc587,,,,,,<div style='display:flex; justify-content:center; align-items:center;'><img src='img/map3_bus_sidewalk_shortest.png' style='width:600px; height:auto;' /></div>,image_trial,,50,img/map3_bus_sidewalk_shortest.png
11048,40,html-slider-response,30,213860,0.0-30.0,1,1,2024-07-20 04:27:16,c42334ae11bd6e373fa9fec6f52302a2,70.140.215.141,"Mozilla/5.0 (Macintosh; Intel Mac OS X 10_15_7) AppleWebKit/537.36 (KHTML, like Gecko) Chrome/126.0.0.0 Safari/537.36",Macintosh,Chrome,126.0.0.0,OS X,10_15_7,https://app.prolific.com/,"en-US,en;q=0.9",mmyate9cf,613fb653aa6f033cb05cc587,,,,,,<div style='display:flex; justify-content:center; align-items:center;'><img src='img/map2_bus_grass_wandering.png' style='width:600px; height:auto;' /></div>,image_trial,,50,img/map2_bus_grass_wandering.png
9882,32,html-slider-response,31,223744,0.0-31.0,1,1,2024-07-20 04:27:16,c42334ae11bd6e373fa9fec6f52302a2,70.140.215.141,"Mozilla/5.0 (Macintosh; Intel Mac OS X 10_15_7) AppleWebKit/537.36 (KHTML, like Gecko) Chrome/126.0.0.0 Safari/537.36",Macintosh,Chrome,126.0.0.0,OS X,10_15_7,https://app.prolific.com/,"en-US,en;q=0.9",mmyate9cf,613fb653aa6f033cb05cc587,,,,,,<div style='display:flex; justify-content:center; align-items:center;'><img src='img/map3_bus_grass_wandering.png' style='width:600px; height:auto;' /></div>,image_trial,,50,img/map3_bus_grass_wandering.png
31464,30,html-slider-response,32,255211,0.0-32.0,1,1,2024-07-20 04:27:16,c42334ae11bd6e373fa9fec6f52302a2,70.140.215.141,"Mozilla/5.0 (Macintosh; Intel Mac OS X 10_15_7) AppleWebKit/537.36 (KHTML, like Gecko) Chrome/126.0.0.0 Safari/537.36",Macintosh,Chrome,126.0.0.0,OS X,10_15_7,https://app.prolific.com/,"en-US,en;q=0.9",mmyate9cf,613fb653aa6f033cb05cc587,,,,,,<div style='display:flex; justify-content:center; align-items:center;'><img src='img/map1_bus_grass_wandering.png' style='width:600px; height:auto;' /></div>,image_trial,,50,img/map1_bus_grass_wandering.png
2681,61,html-slider-response,33,257895,0.0-33.0,1,1,2024-07-20 04:27:16,c42334ae11bd6e373fa9fec6f52302a2,70.140.215.141,"Mozilla/5.0 (Macintosh; Intel Mac OS X 10_15_7) AppleWebKit/537.36 (KHTML, like Gecko) Chrome/126.0.0.0 Safari/537.36",Macintosh,Chrome,126.0.0.0,OS X,10_15_7,https://app.prolific.com/,"en-US,en;q=0.9",mmyate9cf,613fb653aa6f033cb05cc587,,,,,,<div style='display:flex; justify-content:center; align-items:center;'><img src='img/map1_hospital_sidewalk_shortest.png' style='width:600px; height:auto;' /></div>,image_trial,,50,img/map1_hospital_sidewalk_shortest.png
8265,"[{""name"":""understand"",""value"":""yes""},{""name"":""problems"",""value"":""no""},{""name"":""age"",""value"":""23""},{""name"":""gender"",""value"":""female""},{""name"":""comments"",""value"":""""}]",survey-html-form,34,266162,0.0-34.0,1,1,2024-07-20 04:27:16,c42334ae11bd6e373fa9fec6f52302a2,70.140.215.141,"Mozilla/5.0 (Macintosh; Intel Mac OS X 10_15_7) AppleWebKit/537.36 (KHTML, like Gecko) Chrome/126.0.0.0 Safari/537.36",Macintosh,Chrome,126.0.0.0,OS X,10_15_7,https://app.prolific.com/,"en-US,en;q=0.9",mmyate9cf,613fb653aa6f033cb05cc587,,,,,,,debrief,,,
8612,"{""Q0"":""mmyate9cf""}",survey-text,35,274778,0.0-35.0,1,1,2024-07-20 04:27:16,c42334ae11bd6e373fa9fec6f52302a2,70.140.215.141,"Mozilla/5.0 (Macintosh; Intel Mac OS X 10_15_7) AppleWebKit/537.36 (KHTML, like Gecko) Chrome/126.0.0.0 Safari/537.36",Macintosh,Chrome,126.0.0.0,OS X,10_15_7,https://app.prolific.com/,"en-US,en;q=0.9",mmyate9cf,613fb653aa6f033cb05cc587,,,,,,,,,,
10452,"{""prolific_id"":""669a6a35e3b6743e700add87""}",survey-text,0,10474,0.0-0.0,3,1,2024-07-20 04:27:47,c42334ae11bd6e373fa9fec6f52302a2,107.180.169.212,Mozilla/5.0 (Windows NT 10.0; Win64; x64; rv:127.0) Gecko/20100101 Firefox/127.0,,Firefox,127.0,Windows,10.0,https://app.prolific.com/,"en-US,en;q=0.5",ls2fxxm85,669a6a35e3b6743e700add87,,,,,,,,,,
,,preload,1,13799,0.0-1.0,3,1,2024-07-20 04:27:47,c42334ae11bd6e373fa9fec6f52302a2,107.180.169.212,Mozilla/5.0 (Windows NT 10.0; Win64; x64; rv:127.0) Gecko/20100101 Firefox/127.0,,Firefox,127.0,Windows,10.0,https://app.prolific.com/,"en-US,en;q=0.5",ls2fxxm85,669a6a35e3b6743e700add87,true,false,[],[],[],,,,,
8214, ,html-keyboard-response,2,22016,0.0-2.0,3,1,2024-07-20 04:27:47,c42334ae11bd6e373fa9fec6f52302a2,107.180.169.212,Mozilla/5.0 (Windows NT 10.0; Win64; x64; rv:127.0) Gecko/20100101 Firefox/127.0,,Firefox,127.0,Windows,10.0,https://app.prolific.com/,"en-US,en;q=0.5",ls2fxxm85,669a6a35e3b6743e700add87,,,,,,"<p style=""text-align:center;width:700px;""> Welcome to the experiment! This study takes most people around 10 minutes to complete. Please complete it in one sitting.</p>",,,,
6570,y,html-keyboard-response,3,28587,0.0-3.0,3,1,2024-07-20 04:27:47,c42334ae11bd6e373fa9fec6f52302a2,107.180.169.212,Mozilla/5.0 (Windows NT 10.0; Win64; x64; rv:127.0) Gecko/20100101 Firefox/127.0,,Firefox,127.0,Windows,10.0,https://app.prolific.com/,"en-US,en;q=0.5",ls2fxxm85,669a6a35e3b6743e700add87,,,,,,"<p style = ""font-size:16px;"">MIT Computational Cognitive Science Lab</p><h4>Press the 'y' key to consent.</h4><div style = ""background-color:#f2f2f2;""><h3>Informed Consent Form</h3><div style=""text-align:left;width:700px;""><p style = ""font-size:16px;"">In this study, you will be asked to read a set of instructions that describe a particular scenario, and you will then be asked to perform a simple task relating to that scenario. There will also be comprehension and attention checks. Participants who do not answer these checks correctly cannot be approved. In order to get credit for this study, you must read all the questions fully and answer honestly. You may only complete this study once. If you complete this study multiple times, you will be rejected.</p><p style = ""font-size:16px;"">This study is part of a MIT scientific research project. Your decision to complete this study is voluntary. There is no way for us to identify you. The only information we will have, in addition to your responses, is the time at which you completed the survey. The results of the research may be presented at scientific meetings or published in scientific journals. Pressing the ""Y"" key indicates that you are at least 18 years of age, and agree to complete this study voluntarily. Press the ""Y"" key to confirm your agreement and continue.</p></div>",,,,
90429,"{""instructions1"":""A park and surrounding areas""}",survey-text,4,119031,0.0-4.0,3,1,2024-07-20 04:27:47,c42334ae11bd6e373fa9fec6f52302a2,107.180.169.212,Mozilla/5.0 (Windows NT 10.0; Win64; x64; rv:127.0) Gecko/20100101 Firefox/127.0,,Firefox,127.0,Windows,10.0,https://app.prolific.com/,"en-US,en;q=0.5",ls2fxxm85,669a6a35e3b6743e700add87,,,,,,,instructions,,,
68975,"{""instructions2"":""Yes""}",survey-text,5,188016,0.0-5.0,3,1,2024-07-20 04:27:47,c42334ae11bd6e373fa9fec6f52302a2,107.180.169.212,Mozilla/5.0 (Windows NT 10.0; Win64; x64; rv:127.0) Gecko/20100101 Firefox/127.0,,Firefox,127.0,Windows,10.0,https://app.prolific.com/,"en-US,en;q=0.5",ls2fxxm85,669a6a35e3b6743e700add87,,,,,,,instructions,,,
106271,"{""map_attention"":""A person traveling through the park"",""squares_attention"":""Two terrains (grass and sidewalk) and three destinations (urgent care, bus stop, coffee shop)"",""answer_attention"":""Based on your own best judgment based on the map that you see, as well as your <i>own</i> common sense intuitions about towns and these kinds of destinations in general.""}",survey-multi-choice,6,294293,0.0-6.0,3,1,2024-07-20 04:27:47,c42334ae11bd6e373fa9fec6f52302a2,107.180.169.212,Mozilla/5.0 (Windows NT 10.0; Win64; x64; rv:127.0) Gecko/20100101 Firefox/127.0,,Firefox,127.0,Windows,10.0,https://app.prolific.com/,"en-US,en;q=0.5",ls2fxxm85,669a6a35e3b6743e700add87,,,,,,,,"[0,1,2]",,
29814,0,html-slider-response,7,324113,0.0-7.0,3,1,2024-07-20 04:27:47,c42334ae11bd6e373fa9fec6f52302a2,107.180.169.212,Mozilla/5.0 (Windows NT 10.0; Win64; x64; rv:127.0) Gecko/20100101 Firefox/127.0,,Firefox,127.0,Windows,10.0,https://app.prolific.com/,"en-US,en;q=0.5",ls2fxxm85,669a6a35e3b6743e700add87,,,,,,<div style='display:flex; justify-content:center; align-items:center;'><img src='img/map1_bus_grass_wandering.png' style='width:600px; height:auto;' /></div>,image_trial,,50,img/map1_bus_grass_wandering.png
16064,0,html-slider-response,8,340180,0.0-8.0,3,1,2024-07-20 04:27:47,c42334ae11bd6e373fa9fec6f52302a2,107.180.169.212,Mozilla/5.0 (Windows NT 10.0; Win64; x64; rv:127.0) Gecko/20100101 Firefox/127.0,,Firefox,127.0,Windows,10.0,https://app.prolific.com/,"en-US,en;q=0.5",ls2fxxm85,669a6a35e3b6743e700add87,,,,,,<div style='display:flex; justify-content:center; align-items:center;'><img src='img/map3_hospital_grass_wandering.png' style='width:600px; height:auto;' /></div>,image_trial,,50,img/map3_hospital_grass_wandering.png
8811,0,html-slider-response,9,348993,0.0-9.0,3,1,2024-07-20 04:27:47,c42334ae11bd6e373fa9fec6f52302a2,107.180.169.212,Mozilla/5.0 (Windows NT 10.0; Win64; x64; rv:127.0) Gecko/20100101 Firefox/127.0,,Firefox,127.0,Windows,10.0,https://app.prolific.com/,"en-US,en;q=0.5",ls2fxxm85,669a6a35e3b6743e700add87,,,,,,<div style='display:flex; justify-content:center; align-items:center;'><img src='img/map2_bus_grass_shortest.png' style='width:600px; height:auto;' /></div>,image_trial,,50,img/map2_bus_grass_shortest.png
10815,0,html-slider-response,10,359813,0.0-10.0,3,1,2024-07-20 04:27:47,c42334ae11bd6e373fa9fec6f52302a2,107.180.169.212,Mozilla/5.0 (Windows NT 10.0; Win64; x64; rv:127.0) Gecko/20100101 Firefox/127.0,,Firefox,127.0,Windows,10.0,https://app.prolific.com/,"en-US,en;q=0.5",ls2fxxm85,669a6a35e3b6743e700add87,,,,,,<div style='display:flex; justify-content:center; align-items:center;'><img src='img/map1_hospital_grass_shortest.png' style='width:600px; height:auto;' /></div>,image_trial,,50,img/map1_hospital_grass_shortest.png
10638,0,html-slider-response,11,370454,0.0-11.0,3,1,2024-07-20 04:27:47,c42334ae11bd6e373fa9fec6f52302a2,107.180.169.212,Mozilla/5.0 (Windows NT 10.0; Win64; x64; rv:127.0) Gecko/20100101 Firefox/127.0,,Firefox,127.0,Windows,10.0,https://app.prolific.com/,"en-US,en;q=0.5",ls2fxxm85,669a6a35e3b6743e700add87,,,,,,<div style='display:flex; justify-content:center; align-items:center;'><img src='img/map1_bus_grass_shortest.png' style='width:600px; height:auto;' /></div>,image_trial,,50,img/map1_bus_grass_shortest.png
9275,0,html-slider-response,12,379734,0.0-12.0,3,1,2024-07-20 04:27:47,c42334ae11bd6e373fa9fec6f52302a2,107.180.169.212,Mozilla/5.0 (Windows NT 10.0; Win64; x64; rv:127.0) Gecko/20100101 Firefox/127.0,,Firefox,127.0,Windows,10.0,https://app.prolific.com/,"en-US,en;q=0.5",ls2fxxm85,669a6a35e3b6743e700add87,,,,,,<div style='display:flex; justify-content:center; align-items:center;'><img src='img/map2_coffee_grass_wandering.png' style='width:600px; height:auto;' /></div>,image_trial,,50,img/map2_coffee_grass_wandering.png
7201,100,html-slider-response,13,386940,0.0-13.0,3,1,2024-07-20 04:27:47,c42334ae11bd6e373fa9fec6f52302a2,107.180.169.212,Mozilla/5.0 (Windows NT 10.0; Win64; x64; rv:127.0) Gecko/20100101 Firefox/127.0,,Firefox,127.0,Windows,10.0,https://app.prolific.com/,"en-US,en;q=0.5",ls2fxxm85,669a6a35e3b6743e700add87,,,,,,<div style='display:flex; justify-content:center; align-items:center;'><img src='img/map1_hospital_sidewalk_shortest.png' style='width:600px; height:auto;' /></div>,image_trial,,50,img/map1_hospital_sidewalk_shortest.png
6677,0,html-slider-response,14,393619,0.0-14.0,3,1,2024-07-20 04:27:47,c42334ae11bd6e373fa9fec6f52302a2,107.180.169.212,Mozilla/5.0 (Windows NT 10.0; Win64; x64; rv:127.0) Gecko/20100101 Firefox/127.0,,Firefox,127.0,Windows,10.0,https://app.prolific.com/,"en-US,en;q=0.5",ls2fxxm85,669a6a35e3b6743e700add87,,,,,,<div style='display:flex; justify-content:center; align-items:center;'><img src='img/map1_coffee_grass_shortest.png' style='width:600px; height:auto;' /></div>,image_trial,,50,img/map1_coffee_grass_shortest.png
6975,100,html-slider-response,15,400597,0.0-15.0,3,1,2024-07-20 04:27:47,c42334ae11bd6e373fa9fec6f52302a2,107.180.169.212,Mozilla/5.0 (Windows NT 10.0; Win64; x64; rv:127.0) Gecko/20100101 Firefox/127.0,,Firefox,127.0,Windows,10.0,https://app.prolific.com/,"en-US,en;q=0.5",ls2fxxm85,669a6a35e3b6743e700add87,,,,,,<div style='display:flex; justify-content:center; align-items:center;'><img src='img/map2_coffee_sidewalk_shortest.png' style='width:600px; height:auto;' /></div>,image_trial,,50,img/map2_coffee_sidewalk_shortest.png
8254,0,html-slider-response,16,408854,0.0-16.0,3,1,2024-07-20 04:27:47,c42334ae11bd6e373fa9fec6f52302a2,107.180.169.212,Mozilla/5.0 (Windows NT 10.0; Win64; x64; rv:127.0) Gecko/20100101 Firefox/127.0,,Firefox,127.0,Windows,10.0,https://app.prolific.com/,"en-US,en;q=0.5",ls2fxxm85,669a6a35e3b6743e700add87,,,,,,<div style='display:flex; justify-content:center; align-items:center;'><img src='img/map3_bus_grass_wandering.png' style='width:600px; height:auto;' /></div>,image_trial,,50,img/map3_bus_grass_wandering.png
6734,0,html-slider-response,17,415592,0.0-17.0,3,1,2024-07-20 04:27:47,c42334ae11bd6e373fa9fec6f52302a2,107.180.169.212,Mozilla/5.0 (Windows NT 10.0; Win64; x64; rv:127.0) Gecko/20100101 Firefox/127.0,,Firefox,127.0,Windows,10.0,https://app.prolific.com/,"en-US,en;q=0.5",ls2fxxm85,669a6a35e3b6743e700add87,,,,,,<div style='display:flex; justify-content:center; align-items:center;'><img src='img/map3_coffee_grass_shortest.png' style='width:600px; height:auto;' /></div>,image_trial,,50,img/map3_coffee_grass_shortest.png
7702,100,html-slider-response,18,423297,0.0-18.0,3,1,2024-07-20 04:27:47,c42334ae11bd6e373fa9fec6f52302a2,107.180.169.212,Mozilla/5.0 (Windows NT 10.0; Win64; x64; rv:127.0) Gecko/20100101 Firefox/127.0,,Firefox,127.0,Windows,10.0,https://app.prolific.com/,"en-US,en;q=0.5",ls2fxxm85,669a6a35e3b6743e700add87,,,,,,<div style='display:flex; justify-content:center; align-items:center;'><img src='img/map3_coffee_sidewalk_shortest.png' style='width:600px; height:auto;' /></div>,image_trial,,50,img/map3_coffee_sidewalk_shortest.png
6392,2,html-slider-response,19,429694,0.0-19.0,3,1,2024-07-20 04:27:47,c42334ae11bd6e373fa9fec6f52302a2,107.180.169.212,Mozilla/5.0 (Windows NT 10.0; Win64; x64; rv:127.0) Gecko/20100101 Firefox/127.0,,Firefox,127.0,Windows,10.0,https://app.prolific.com/,"en-US,en;q=0.5",ls2fxxm85,669a6a35e3b6743e700add87,,,,,,<div style='display:flex; justify-content:center; align-items:center;'><img src='img/map2_coffee_grass_shortest.png' style='width:600px; height:auto;' /></div>,image_trial,,50,img/map2_coffee_grass_shortest.png
9014,0,html-slider-response,20,438709,0.0-20.0,3,1,2024-07-20 04:27:47,c42334ae11bd6e373fa9fec6f52302a2,107.180.169.212,Mozilla/5.0 (Windows NT 10.0; Win64; x64; rv:127.0) Gecko/20100101 Firefox/127.0,,Firefox,127.0,Windows,10.0,https://app.prolific.com/,"en-US,en;q=0.5",ls2fxxm85,669a6a35e3b6743e700add87,,,,,,<div style='display:flex; justify-content:center; align-items:center;'><img src='img/map3_bus_grass_shortest.png' style='width:600px; height:auto;' /></div>,image_trial,,50,img/map3_bus_grass_shortest.png
7991,100,html-slider-response,21,446704,0.0-21.0,3,1,2024-07-20 04:27:47,c42334ae11bd6e373fa9fec6f52302a2,107.180.169.212,Mozilla/5.0 (Windows NT 10.0; Win64; x64; rv:127.0) Gecko/20100101 Firefox/127.0,,Firefox,127.0,Windows,10.0,https://app.prolific.com/,"en-US,en;q=0.5",ls2fxxm85,669a6a35e3b6743e700add87,,,,,,<div style='display:flex; justify-content:center; align-items:center;'><img src='img/map2_hospital_sidewalk_shortest.png' style='width:600px; height:auto;' /></div>,image_trial,,50,img/map2_hospital_sidewalk_shortest.png
8331,0,html-slider-response,22,455037,0.0-22.0,3,1,2024-07-20 04:27:47,c42334ae11bd6e373fa9fec6f52302a2,107.180.169.212,Mozilla/5.0 (Windows NT 10.0; Win64; x64; rv:127.0) Gecko/20100101 Firefox/127.0,,Firefox,127.0,Windows,10.0,https://app.prolific.com/,"en-US,en;q=0.5",ls2fxxm85,669a6a35e3b6743e700add87,,,,,,<div style='display:flex; justify-content:center; align-items:center;'><img src='img/map3_hospital_grass_shortest.png' style='width:600px; height:auto;' /></div>,image_trial,,50,img/map3_hospital_grass_shortest.png
7594,100,html-slider-response,23,462636,0.0-23.0,3,1,2024-07-20 04:27:47,c42334ae11bd6e373fa9fec6f52302a2,107.180.169.212,Mozilla/5.0 (Windows NT 10.0; Win64; x64; rv:127.0) Gecko/20100101 Firefox/127.0,,Firefox,127.0,Windows,10.0,https://app.prolific.com/,"en-US,en;q=0.5",ls2fxxm85,669a6a35e3b6743e700add87,,,,,,<div style='display:flex; justify-content:center; align-items:center;'><img src='img/map2_bus_sidewalk_shortest.png' style='width:600px; height:auto;' /></div>,image_trial,,50,img/map2_bus_sidewalk_shortest.png
6532,100,html-slider-response,24,469171,0.0-24.0,3,1,2024-07-20 04:27:47,c42334ae11bd6e373fa9fec6f52302a2,107.180.169.212,Mozilla/5.0 (Windows NT 10.0; Win64; x64; rv:127.0) Gecko/20100101 Firefox/127.0,,Firefox,127.0,Windows,10.0,https://app.prolific.com/,"en-US,en;q=0.5",ls2fxxm85,669a6a35e3b6743e700add87,,,,,,<div style='display:flex; justify-content:center; align-items:center;'><img src='img/map3_bus_sidewalk_shortest.png' style='width:600px; height:auto;' /></div>,image_trial,,50,img/map3_bus_sidewalk_shortest.png
6975,0,html-slider-response,25,476149,0.0-25.0,3,1,2024-07-20 04:27:47,c42334ae11bd6e373fa9fec6f52302a2,107.180.169.212,Mozilla/5.0 (Windows NT 10.0; Win64; x64; rv:127.0) Gecko/20100101 Firefox/127.0,,Firefox,127.0,Windows,10.0,https://app.prolific.com/,"en-US,en;q=0.5",ls2fxxm85,669a6a35e3b6743e700add87,,,,,,<div style='display:flex; justify-content:center; align-items:center;'><img src='img/map2_hospital_grass_wandering.png' style='width:600px; height:auto;' /></div>,image_trial,,50,img/map2_hospital_grass_wandering.png
7487,72,html-slider-response,26,483639,0.0-26.0,3,1,2024-07-20 04:27:47,c42334ae11bd6e373fa9fec6f52302a2,107.180.169.212,Mozilla/5.0 (Windows NT 10.0; Win64; x64; rv:127.0) Gecko/20100101 Firefox/127.0,,Firefox,127.0,Windows,10.0,https://app.prolific.com/,"en-US,en;q=0.5",ls2fxxm85,669a6a35e3b6743e700add87,,,,,,<div style='display:flex; justify-content:center; align-items:center;'><img src='img/map3_hospital_sidewalk_shortest.png' style='width:600px; height:auto;' /></div>,image_trial,,50,img/map3_hospital_sidewalk_shortest.png
4376,100,html-slider-response,27,488018,0.0-27.0,3,1,2024-07-20 04:27:47,c42334ae11bd6e373fa9fec6f52302a2,107.180.169.212,Mozilla/5.0 (Windows NT 10.0; Win64; x64; rv:127.0) Gecko/20100101 Firefox/127.0,,Firefox,127.0,Windows,10.0,https://app.prolific.com/,"en-US,en;q=0.5",ls2fxxm85,669a6a35e3b6743e700add87,,,,,,<div style='display:flex; justify-content:center; align-items:center;'><img src='img/map1_coffee_sidewalk_shortest.png' style='width:600px; height:auto;' /></div>,image_trial,,50,img/map1_coffee_sidewalk_shortest.png
6808,100,html-slider-response,28,494830,0.0-28.0,3,1,2024-07-20 04:27:47,c42334ae11bd6e373fa9fec6f52302a2,107.180.169.212,Mozilla/5.0 (Windows NT 10.0; Win64; x64; rv:127.0) Gecko/20100101 Firefox/127.0,,Firefox,127.0,Windows,10.0,https://app.prolific.com/,"en-US,en;q=0.5",ls2fxxm85,669a6a35e3b6743e700add87,,,,,,<div style='display:flex; justify-content:center; align-items:center;'><img src='img/map1_bus_sidewalk_shortest.png' style='width:600px; height:auto;' /></div>,image_trial,,50,img/map1_bus_sidewalk_shortest.png
10577,9,html-slider-response,29,505410,0.0-29.0,3,1,2024-07-20 04:27:47,c42334ae11bd6e373fa9fec6f52302a2,107.180.169.212,Mozilla/5.0 (Windows NT 10.0; Win64; x64; rv:127.0) Gecko/20100101 Firefox/127.0,,Firefox,127.0,Windows,10.0,https://app.prolific.com/,"en-US,en;q=0.5",ls2fxxm85,669a6a35e3b6743e700add87,,,,,,<div style='display:flex; justify-content:center; align-items:center;'><img src='img/map1_coffee_grass_wandering.png' style='width:600px; height:auto;' /></div>,image_trial,,50,img/map1_coffee_grass_wandering.png
5663,0,html-slider-response,30,511077,0.0-30.0,3,1,2024-07-20 04:27:47,c42334ae11bd6e373fa9fec6f52302a2,107.180.169.212,Mozilla/5.0 (Windows NT 10.0; Win64; x64; rv:127.0) Gecko/20100101 Firefox/127.0,,Firefox,127.0,Windows,10.0,https://app.prolific.com/,"en-US,en;q=0.5",ls2fxxm85,669a6a35e3b6743e700add87,,,,,,<div style='display:flex; justify-content:center; align-items:center;'><img src='img/map1_hospital_grass_wandering.png' style='width:600px; height:auto;' /></div>,image_trial,,50,img/map1_hospital_grass_wandering.png
7273,0,html-slider-response,31,518353,0.0-31.0,3,1,2024-07-20 04:27:47,c42334ae11bd6e373fa9fec6f52302a2,107.180.169.212,Mozilla/5.0 (Windows NT 10.0; Win64; x64; rv:127.0) Gecko/20100101 Firefox/127.0,,Firefox,127.0,Windows,10.0,https://app.prolific.com/,"en-US,en;q=0.5",ls2fxxm85,669a6a35e3b6743e700add87,,,,,,<div style='display:flex; justify-content:center; align-items:center;'><img src='img/map3_coffee_grass_wandering.png' style='width:600px; height:auto;' /></div>,image_trial,,50,img/map3_coffee_grass_wandering.png
8667,0,html-slider-response,32,527023,0.0-32.0,3,1,2024-07-20 04:27:47,c42334ae11bd6e373fa9fec6f52302a2,107.180.169.212,Mozilla/5.0 (Windows NT 10.0; Win64; x64; rv:127.0) Gecko/20100101 Firefox/127.0,,Firefox,127.0,Windows,10.0,https://app.prolific.com/,"en-US,en;q=0.5",ls2fxxm85,669a6a35e3b6743e700add87,,,,,,<div style='display:flex; justify-content:center; align-items:center;'><img src='img/map2_bus_grass_wandering.png' style='width:600px; height:auto;' /></div>,image_trial,,50,img/map2_bus_grass_wandering.png
9145,0,html-slider-response,33,536173,0.0-33.0,3,1,2024-07-20 04:27:47,c42334ae11bd6e373fa9fec6f52302a2,107.180.169.212,Mozilla/5.0 (Windows NT 10.0; Win64; x64; rv:127.0) Gecko/20100101 Firefox/127.0,,Firefox,127.0,Windows,10.0,https://app.prolific.com/,"en-US,en;q=0.5",ls2fxxm85,669a6a35e3b6743e700add87,,,,,,<div style='display:flex; justify-content:center; align-items:center;'><img src='img/map2_hospital_grass_shortest.png' style='width:600px; height:auto;' /></div>,image_trial,,50,img/map2_hospital_grass_shortest.png
26493,"[{""name"":""understand"",""value"":""yes""},{""name"":""problems"",""value"":""No""},{""name"":""age"",""value"":""24""},{""name"":""gender"",""value"":""male""},{""name"":""comments"",""value"":""No""}]",survey-html-form,34,562670,0.0-34.0,3,1,2024-07-20 04:27:47,c42334ae11bd6e373fa9fec6f52302a2,107.180.169.212,Mozilla/5.0 (Windows NT 10.0; Win64; x64; rv:127.0) Gecko/20100101 Firefox/127.0,,Firefox,127.0,Windows,10.0,https://app.prolific.com/,"en-US,en;q=0.5",ls2fxxm85,669a6a35e3b6743e700add87,,,,,,,debrief,,,
14806,"{""Q0"":""ls2fxxm85 ""}",survey-text,35,577482,0.0-35.0,3,1,2024-07-20 04:27:47,c42334ae11bd6e373fa9fec6f52302a2,107.180.169.212,Mozilla/5.0 (Windows NT 10.0; Win64; x64; rv:127.0) Gecko/20100101 Firefox/127.0,,Firefox,127.0,Windows,10.0,https://app.prolific.com/,"en-US,en;q=0.5",ls2fxxm85,669a6a35e3b6743e700add87,,,,,,,,,,
3497,"{""prolific_id"":""6667385b5787cbf400b73b25""}",survey-text,0,3515,0.0-0.0,4,1,2024-07-20 04:30:01,c42334ae11bd6e373fa9fec6f52302a2,66.8.131.197,Mozilla/5.0 (Macintosh; Intel Mac OS X 10.15; rv:128.0) Gecko/20100101 Firefox/128.0,Macintosh,Firefox,128.0,OS X,10.15,https://app.prolific.com/,"en-US,en;q=0.5",d8kvl9z75,6667385b5787cbf400b73b25,,,,,,,,,,
,,preload,1,6809,0.0-1.0,4,1,2024-07-20 04:30:01,c42334ae11bd6e373fa9fec6f52302a2,66.8.131.197,Mozilla/5.0 (Macintosh; Intel Mac OS X 10.15; rv:128.0) Gecko/20100101 Firefox/128.0,Macintosh,Firefox,128.0,OS X,10.15,https://app.prolific.com/,"en-US,en;q=0.5",d8kvl9z75,6667385b5787cbf400b73b25,true,false,[],[],[],,,,,
2282, ,html-keyboard-response,2,9092,0.0-2.0,4,1,2024-07-20 04:30:01,c42334ae11bd6e373fa9fec6f52302a2,66.8.131.197,Mozilla/5.0 (Macintosh; Intel Mac OS X 10.15; rv:128.0) Gecko/20100101 Firefox/128.0,Macintosh,Firefox,128.0,OS X,10.15,https://app.prolific.com/,"en-US,en;q=0.5",d8kvl9z75,6667385b5787cbf400b73b25,,,,,,"<p style=""text-align:center;width:700px;""> Welcome to the experiment! This study takes most people around 10 minutes to complete. Please complete it in one sitting.</p>",,,,
18289,y,html-keyboard-response,3,27385,0.0-3.0,4,1,2024-07-20 04:30:01,c42334ae11bd6e373fa9fec6f52302a2,66.8.131.197,Mozilla/5.0 (Macintosh; Intel Mac OS X 10.15; rv:128.0) Gecko/20100101 Firefox/128.0,Macintosh,Firefox,128.0,OS X,10.15,https://app.prolific.com/,"en-US,en;q=0.5",d8kvl9z75,6667385b5787cbf400b73b25,,,,,,"<p style = ""font-size:16px;"">MIT Computational Cognitive Science Lab</p><h4>Press the 'y' key to consent.</h4><div style = ""background-color:#f2f2f2;""><h3>Informed Consent Form</h3><div style=""text-align:left;width:700px;""><p style = ""font-size:16px;"">In this study, you will be asked to read a set of instructions that describe a particular scenario, and you will then be asked to perform a simple task relating to that scenario. There will also be comprehension and attention checks. Participants who do not answer these checks correctly cannot be approved. In order to get credit for this study, you must read all the questions fully and answer honestly. You may only complete this study once. If you complete this study multiple times, you will be rejected.</p><p style = ""font-size:16px;"">This study is part of a MIT scientific research project. Your decision to complete this study is voluntary. There is no way for us to identify you. The only information we will have, in addition to your responses, is the time at which you completed the survey. The results of the research may be presented at scientific meetings or published in scientific journals. Pressing the ""Y"" key indicates that you are at least 18 years of age, and agree to complete this study voluntarily. Press the ""Y"" key to confirm your agreement and continue.</p></div>",,,,
85638,"{""instructions1"":""destinations & terrain""}",survey-text,4,113032,0.0-4.0,4,1,2024-07-20 04:30:01,c42334ae11bd6e373fa9fec6f52302a2,66.8.131.197,Mozilla/5.0 (Macintosh; Intel Mac OS X 10.15; rv:128.0) Gecko/20100101 Firefox/128.0,Macintosh,Firefox,128.0,OS X,10.15,https://app.prolific.com/,"en-US,en;q=0.5",d8kvl9z75,6667385b5787cbf400b73b25,,,,,,,instructions,,,
12357,"{""instructions2"":""yes""}",survey-text,5,125396,0.0-5.0,4,1,2024-07-20 04:30:01,c42334ae11bd6e373fa9fec6f52302a2,66.8.131.197,Mozilla/5.0 (Macintosh; Intel Mac OS X 10.15; rv:128.0) Gecko/20100101 Firefox/128.0,Macintosh,Firefox,128.0,OS X,10.15,https://app.prolific.com/,"en-US,en;q=0.5",d8kvl9z75,6667385b5787cbf400b73b25,,,,,,,instructions,,,
39105,"{""map_attention"":""Maps showing a small city, park, and destinations"",""squares_attention"":""Two terrains (grass and sidewalk) and three destinations (urgent care, bus stop, coffee shop)"",""answer_attention"":""Based on your own best judgment based on the map that you see, as well as your <i>own</i> common sense intuitions about towns and these kinds of destinations in general.""}",survey-multi-choice,6,164505,0.0-6.0,4,1,2024-07-20 04:30:01,c42334ae11bd6e373fa9fec6f52302a2,66.8.131.197,Mozilla/5.0 (Macintosh; Intel Mac OS X 10.15; rv:128.0) Gecko/20100101 Firefox/128.0,Macintosh,Firefox,128.0,OS X,10.15,https://app.prolific.com/,"en-US,en;q=0.5",d8kvl9z75,6667385b5787cbf400b73b25,,,,,,,,"[0,1,2]",,
14510,100,html-slider-response,7,179017,0.0-7.0,4,1,2024-07-20 04:30:01,c42334ae11bd6e373fa9fec6f52302a2,66.8.131.197,Mozilla/5.0 (Macintosh; Intel Mac OS X 10.15; rv:128.0) Gecko/20100101 Firefox/128.0,Macintosh,Firefox,128.0,OS X,10.15,https://app.prolific.com/,"en-US,en;q=0.5",d8kvl9z75,6667385b5787cbf400b73b25,,,,,,<div style='display:flex; justify-content:center; align-items:center;'><img src='img/map1_coffee_grass_shortest.png' style='width:600px; height:auto;' /></div>,image_trial,,50,img/map1_coffee_grass_shortest.png
23763,95,html-slider-response,8,202783,0.0-8.0,4,1,2024-07-20 04:30:01,c42334ae11bd6e373fa9fec6f52302a2,66.8.131.197,Mozilla/5.0 (Macintosh; Intel Mac OS X 10.15; rv:128.0) Gecko/20100101 Firefox/128.0,Macintosh,Firefox,128.0,OS X,10.15,https://app.prolific.com/,"en-US,en;q=0.5",d8kvl9z75,6667385b5787cbf400b73b25,,,,,,<div style='display:flex; justify-content:center; align-items:center;'><img src='img/map1_bus_grass_wandering.png' style='width:600px; height:auto;' /></div>,image_trial,,50,img/map1_bus_grass_wandering.png
4875,100,html-slider-response,9,207660,0.0-9.0,4,1,2024-07-20 04:30:01,c42334ae11bd6e373fa9fec6f52302a2,66.8.131.197,Mozilla/5.0 (Macintosh; Intel Mac OS X 10.15; rv:128.0) Gecko/20100101 Firefox/128.0,Macintosh,Firefox,128.0,OS X,10.15,https://app.prolific.com/,"en-US,en;q=0.5",d8kvl9z75,6667385b5787cbf400b73b25,,,,,,<div style='display:flex; justify-content:center; align-items:center;'><img src='img/map1_hospital_sidewalk_shortest.png' style='width:600px; height:auto;' /></div>,image_trial,,50,img/map1_hospital_sidewalk_shortest.png
30810,29,html-slider-response,10,238473,0.0-10.0,4,1,2024-07-20 04:30:01,c42334ae11bd6e373fa9fec6f52302a2,66.8.131.197,Mozilla/5.0 (Macintosh; Intel Mac OS X 10.15; rv:128.0) Gecko/20100101 Firefox/128.0,Macintosh,Firefox,128.0,OS X,10.15,https://app.prolific.com/,"en-US,en;q=0.5",d8kvl9z75,6667385b5787cbf400b73b25,,,,,,<div style='display:flex; justify-content:center; align-items:center;'><img src='img/map3_coffee_grass_wandering.png' style='width:600px; height:auto;' /></div>,image_trial,,50,img/map3_coffee_grass_wandering.png
8490,38,html-slider-response,11,246966,0.0-11.0,4,1,2024-07-20 04:30:01,c42334ae11bd6e373fa9fec6f52302a2,66.8.131.197,Mozilla/5.0 (Macintosh; Intel Mac OS X 10.15; rv:128.0) Gecko/20100101 Firefox/128.0,Macintosh,Firefox,128.0,OS X,10.15,https://app.prolific.com/,"en-US,en;q=0.5",d8kvl9z75,6667385b5787cbf400b73b25,,,,,,<div style='display:flex; justify-content:center; align-items:center;'><img src='img/map2_coffee_grass_wandering.png' style='width:600px; height:auto;' /></div>,image_trial,,50,img/map2_coffee_grass_wandering.png
5056,100,html-slider-response,12,252025,0.0-12.0,4,1,2024-07-20 04:30:01,c42334ae11bd6e373fa9fec6f52302a2,66.8.131.197,Mozilla/5.0 (Macintosh; Intel Mac OS X 10.15; rv:128.0) Gecko/20100101 Firefox/128.0,Macintosh,Firefox,128.0,OS X,10.15,https://app.prolific.com/,"en-US,en;q=0.5",d8kvl9z75,6667385b5787cbf400b73b25,,,,,,<div style='display:flex; justify-content:center; align-items:center;'><img src='img/map3_coffee_grass_shortest.png' style='width:600px; height:auto;' /></div>,image_trial,,50,img/map3_coffee_grass_shortest.png
9222,61,html-slider-response,13,261249,0.0-13.0,4,1,2024-07-20 04:30:01,c42334ae11bd6e373fa9fec6f52302a2,66.8.131.197,Mozilla/5.0 (Macintosh; Intel Mac OS X 10.15; rv:128.0) Gecko/20100101 Firefox/128.0,Macintosh,Firefox,128.0,OS X,10.15,https://app.prolific.com/,"en-US,en;q=0.5",d8kvl9z75,6667385b5787cbf400b73b25,,,,,,<div style='display:flex; justify-content:center; align-items:center;'><img src='img/map2_hospital_grass_wandering.png' style='width:600px; height:auto;' /></div>,image_trial,,50,img/map2_hospital_grass_wandering.png
4317,100,html-slider-response,14,265568,0.0-14.0,4,1,2024-07-20 04:30:01,c42334ae11bd6e373fa9fec6f52302a2,66.8.131.197,Mozilla/5.0 (Macintosh; Intel Mac OS X 10.15; rv:128.0) Gecko/20100101 Firefox/128.0,Macintosh,Firefox,128.0,OS X,10.15,https://app.prolific.com/,"en-US,en;q=0.5",d8kvl9z75,6667385b5787cbf400b73b25,,,,,,<div style='display:flex; justify-content:center; align-items:center;'><img src='img/map1_hospital_grass_shortest.png' style='width:600px; height:auto;' /></div>,image_trial,,50,img/map1_hospital_grass_shortest.png
6553,100,html-slider-response,15,272123,0.0-15.0,4,1,2024-07-20 04:30:01,c42334ae11bd6e373fa9fec6f52302a2,66.8.131.197,Mozilla/5.0 (Macintosh; Intel Mac OS X 10.15; rv:128.0) Gecko/20100101 Firefox/128.0,Macintosh,Firefox,128.0,OS X,10.15,https://app.prolific.com/,"en-US,en;q=0.5",d8kvl9z75,6667385b5787cbf400b73b25,,,,,,<div style='display:flex; justify-content:center; align-items:center;'><img src='img/map3_hospital_grass_shortest.png' style='width:600px; height:auto;' /></div>,image_trial,,50,img/map3_hospital_grass_shortest.png
3535,100,html-slider-response,16,275660,0.0-16.0,4,1,2024-07-20 04:30:01,c42334ae11bd6e373fa9fec6f52302a2,66.8.131.197,Mozilla/5.0 (Macintosh; Intel Mac OS X 10.15; rv:128.0) Gecko/20100101 Firefox/128.0,Macintosh,Firefox,128.0,OS X,10.15,https://app.prolific.com/,"en-US,en;q=0.5",d8kvl9z75,6667385b5787cbf400b73b25,,,,,,<div style='display:flex; justify-content:center; align-items:center;'><img src='img/map2_hospital_sidewalk_shortest.png' style='width:600px; height:auto;' /></div>,image_trial,,50,img/map2_hospital_sidewalk_shortest.png
24914,51,html-slider-response,17,300579,0.0-17.0,4,1,2024-07-20 04:30:01,c42334ae11bd6e373fa9fec6f52302a2,66.8.131.197,Mozilla/5.0 (Macintosh; Intel Mac OS X 10.15; rv:128.0) Gecko/20100101 Firefox/128.0,Macintosh,Firefox,128.0,OS X,10.15,https://app.prolific.com/,"en-US,en;q=0.5",d8kvl9z75,6667385b5787cbf400b73b25,,,,,,<div style='display:flex; justify-content:center; align-items:center;'><img src='img/map1_hospital_grass_wandering.png' style='width:600px; height:auto;' /></div>,image_trial,,50,img/map1_hospital_grass_wandering.png
5247,100,html-slider-response,18,305831,0.0-18.0,4,1,2024-07-20 04:30:01,c42334ae11bd6e373fa9fec6f52302a2,66.8.131.197,Mozilla/5.0 (Macintosh; Intel Mac OS X 10.15; rv:128.0) Gecko/20100101 Firefox/128.0,Macintosh,Firefox,128.0,OS X,10.15,https://app.prolific.com/,"en-US,en;q=0.5",d8kvl9z75,6667385b5787cbf400b73b25,,,,,,<div style='display:flex; justify-content:center; align-items:center;'><img src='img/map2_bus_sidewalk_shortest.png' style='width:600px; height:auto;' /></div>,image_trial,,50,img/map2_bus_sidewalk_shortest.png
11409,66,html-slider-response,19,317245,0.0-19.0,4,1,2024-07-20 04:30:01,c42334ae11bd6e373fa9fec6f52302a2,66.8.131.197,Mozilla/5.0 (Macintosh; Intel Mac OS X 10.15; rv:128.0) Gecko/20100101 Firefox/128.0,Macintosh,Firefox,128.0,OS X,10.15,https://app.prolific.com/,"en-US,en;q=0.5",d8kvl9z75,6667385b5787cbf400b73b25,,,,,,<div style='display:flex; justify-content:center; align-items:center;'><img src='img/map2_bus_grass_wandering.png' style='width:600px; height:auto;' /></div>,image_trial,,50,img/map2_bus_grass_wandering.png
7902,29,html-slider-response,20,325152,0.0-20.0,4,1,2024-07-20 04:30:01,c42334ae11bd6e373fa9fec6f52302a2,66.8.131.197,Mozilla/5.0 (Macintosh; Intel Mac OS X 10.15; rv:128.0) Gecko/20100101 Firefox/128.0,Macintosh,Firefox,128.0,OS X,10.15,https://app.prolific.com/,"en-US,en;q=0.5",d8kvl9z75,6667385b5787cbf400b73b25,,,,,,<div style='display:flex; justify-content:center; align-items:center;'><img src='img/map3_hospital_grass_wandering.png' style='width:600px; height:auto;' /></div>,image_trial,,50,img/map3_hospital_grass_wandering.png
4337,100,html-slider-response,21,329492,0.0-21.0,4,1,2024-07-20 04:30:01,c42334ae11bd6e373fa9fec6f52302a2,66.8.131.197,Mozilla/5.0 (Macintosh; Intel Mac OS X 10.15; rv:128.0) Gecko/20100101 Firefox/128.0,Macintosh,Firefox,128.0,OS X,10.15,https://app.prolific.com/,"en-US,en;q=0.5",d8kvl9z75,6667385b5787cbf400b73b25,,,,,,<div style='display:flex; justify-content:center; align-items:center;'><img src='img/map3_coffee_sidewalk_shortest.png' style='width:600px; height:auto;' /></div>,image_trial,,50,img/map3_coffee_sidewalk_shortest.png
6728,100,html-slider-response,22,336224,0.0-22.0,4,1,2024-07-20 04:30:01,c42334ae11bd6e373fa9fec6f52302a2,66.8.131.197,Mozilla/5.0 (Macintosh; Intel Mac OS X 10.15; rv:128.0) Gecko/20100101 Firefox/128.0,Macintosh,Firefox,128.0,OS X,10.15,https://app.prolific.com/,"en-US,en;q=0.5",d8kvl9z75,6667385b5787cbf400b73b25,,,,,,<div style='display:flex; justify-content:center; align-items:center;'><img src='img/map3_bus_sidewalk_shortest.png' style='width:600px; height:auto;' /></div>,image_trial,,50,img/map3_bus_sidewalk_shortest.png
11751,89,html-slider-response,23,347980,0.0-23.0,4,1,2024-07-20 04:30:01,c42334ae11bd6e373fa9fec6f52302a2,66.8.131.197,Mozilla/5.0 (Macintosh; Intel Mac OS X 10.15; rv:128.0) Gecko/20100101 Firefox/128.0,Macintosh,Firefox,128.0,OS X,10.15,https://app.prolific.com/,"en-US,en;q=0.5",d8kvl9z75,6667385b5787cbf400b73b25,,,,,,<div style='display:flex; justify-content:center; align-items:center;'><img src='img/map3_bus_grass_wandering.png' style='width:600px; height:auto;' /></div>,image_trial,,50,img/map3_bus_grass_wandering.png
9215,100,html-slider-response,24,357199,0.0-24.0,4,1,2024-07-20 04:30:01,c42334ae11bd6e373fa9fec6f52302a2,66.8.131.197,Mozilla/5.0 (Macintosh; Intel Mac OS X 10.15; rv:128.0) Gecko/20100101 Firefox/128.0,Macintosh,Firefox,128.0,OS X,10.15,https://app.prolific.com/,"en-US,en;q=0.5",d8kvl9z75,6667385b5787cbf400b73b25,,,,,,<div style='display:flex; justify-content:center; align-items:center;'><img src='img/map2_bus_grass_shortest.png' style='width:600px; height:auto;' /></div>,image_trial,,50,img/map2_bus_grass_shortest.png
6153,100,html-slider-response,25,363357,0.0-25.0,4,1,2024-07-20 04:30:01,c42334ae11bd6e373fa9fec6f52302a2,66.8.131.197,Mozilla/5.0 (Macintosh; Intel Mac OS X 10.15; rv:128.0) Gecko/20100101 Firefox/128.0,Macintosh,Firefox,128.0,OS X,10.15,https://app.prolific.com/,"en-US,en;q=0.5",d8kvl9z75,6667385b5787cbf400b73b25,,,,,,<div style='display:flex; justify-content:center; align-items:center;'><img src='img/map2_coffee_grass_shortest.png' style='width:600px; height:auto;' /></div>,image_trial,,50,img/map2_coffee_grass_shortest.png
7935,100,html-slider-response,26,371294,0.0-26.0,4,1,2024-07-20 04:30:01,c42334ae11bd6e373fa9fec6f52302a2,66.8.131.197,Mozilla/5.0 (Macintosh; Intel Mac OS X 10.15; rv:128.0) Gecko/20100101 Firefox/128.0,Macintosh,Firefox,128.0,OS X,10.15,https://app.prolific.com/,"en-US,en;q=0.5",d8kvl9z75,6667385b5787cbf400b73b25,,,,,,<div style='display:flex; justify-content:center; align-items:center;'><img src='img/map1_bus_grass_shortest.png' style='width:600px; height:auto;' /></div>,image_trial,,50,img/map1_bus_grass_shortest.png
3137,100,html-slider-response,27,374435,0.0-27.0,4,1,2024-07-20 04:30:01,c42334ae11bd6e373fa9fec6f52302a2,66.8.131.197,Mozilla/5.0 (Macintosh; Intel Mac OS X 10.15; rv:128.0) Gecko/20100101 Firefox/128.0,Macintosh,Firefox,128.0,OS X,10.15,https://app.prolific.com/,"en-US,en;q=0.5",d8kvl9z75,6667385b5787cbf400b73b25,,,,,,<div style='display:flex; justify-content:center; align-items:center;'><img src='img/map1_coffee_sidewalk_shortest.png' style='width:600px; height:auto;' /></div>,image_trial,,50,img/map1_coffee_sidewalk_shortest.png
5032,44,html-slider-response,28,379472,0.0-28.0,4,1,2024-07-20 04:30:01,c42334ae11bd6e373fa9fec6f52302a2,66.8.131.197,Mozilla/5.0 (Macintosh; Intel Mac OS X 10.15; rv:128.0) Gecko/20100101 Firefox/128.0,Macintosh,Firefox,128.0,OS X,10.15,https://app.prolific.com/,"en-US,en;q=0.5",d8kvl9z75,6667385b5787cbf400b73b25,,,,,,<div style='display:flex; justify-content:center; align-items:center;'><img src='img/map3_hospital_sidewalk_shortest.png' style='width:600px; height:auto;' /></div>,image_trial,,50,img/map3_hospital_sidewalk_shortest.png
10506,50,html-slider-response,29,389981,0.0-29.0,4,1,2024-07-20 04:30:01,c42334ae11bd6e373fa9fec6f52302a2,66.8.131.197,Mozilla/5.0 (Macintosh; Intel Mac OS X 10.15; rv:128.0) Gecko/20100101 Firefox/128.0,Macintosh,Firefox,128.0,OS X,10.15,https://app.prolific.com/,"en-US,en;q=0.5",d8kvl9z75,6667385b5787cbf400b73b25,,,,,,<div style='display:flex; justify-content:center; align-items:center;'><img src='img/map1_coffee_grass_wandering.png' style='width:600px; height:auto;' /></div>,image_trial,,50,img/map1_coffee_grass_wandering.png
4025,100,html-slider-response,30,394008,0.0-30.0,4,1,2024-07-20 04:30:01,c42334ae11bd6e373fa9fec6f52302a2,66.8.131.197,Mozilla/5.0 (Macintosh; Intel Mac OS X 10.15; rv:128.0) Gecko/20100101 Firefox/128.0,Macintosh,Firefox,128.0,OS X,10.15,https://app.prolific.com/,"en-US,en;q=0.5",d8kvl9z75,6667385b5787cbf400b73b25,,,,,,<div style='display:flex; justify-content:center; align-items:center;'><img src='img/map1_bus_sidewalk_shortest.png' style='width:600px; height:auto;' /></div>,image_trial,,50,img/map1_bus_sidewalk_shortest.png
6210,76,html-slider-response,31,400220,0.0-31.0,4,1,2024-07-20 04:30:01,c42334ae11bd6e373fa9fec6f52302a2,66.8.131.197,Mozilla/5.0 (Macintosh; Intel Mac OS X 10.15; rv:128.0) Gecko/20100101 Firefox/128.0,Macintosh,Firefox,128.0,OS X,10.15,https://app.prolific.com/,"en-US,en;q=0.5",d8kvl9z75,6667385b5787cbf400b73b25,,,,,,<div style='display:flex; justify-content:center; align-items:center;'><img src='img/map2_coffee_sidewalk_shortest.png' style='width:600px; height:auto;' /></div>,image_trial,,50,img/map2_coffee_sidewalk_shortest.png
5881,100,html-slider-response,32,406106,0.0-32.0,4,1,2024-07-20 04:30:01,c42334ae11bd6e373fa9fec6f52302a2,66.8.131.197,Mozilla/5.0 (Macintosh; Intel Mac OS X 10.15; rv:128.0) Gecko/20100101 Firefox/128.0,Macintosh,Firefox,128.0,OS X,10.15,https://app.prolific.com/,"en-US,en;q=0.5",d8kvl9z75,6667385b5787cbf400b73b25,,,,,,<div style='display:flex; justify-content:center; align-items:center;'><img src='img/map3_bus_grass_shortest.png' style='width:600px; height:auto;' /></div>,image_trial,,50,img/map3_bus_grass_shortest.png
11523,100,html-slider-response,33,417636,0.0-33.0,4,1,2024-07-20 04:30:01,c42334ae11bd6e373fa9fec6f52302a2,66.8.131.197,Mozilla/5.0 (Macintosh; Intel Mac OS X 10.15; rv:128.0) Gecko/20100101 Firefox/128.0,Macintosh,Firefox,128.0,OS X,10.15,https://app.prolific.com/,"en-US,en;q=0.5",d8kvl9z75,6667385b5787cbf400b73b25,,,,,,<div style='display:flex; justify-content:center; align-items:center;'><img src='img/map2_hospital_grass_shortest.png' style='width:600px; height:auto;' /></div>,image_trial,,50,img/map2_hospital_grass_shortest.png
16456,"[{""name"":""understand"",""value"":""yes""},{""name"":""problems"",""value"":""no""},{""name"":""age"",""value"":""24""},{""name"":""gender"",""value"":""female""},{""name"":""comments"",""value"":""""}]",survey-html-form,34,434094,0.0-34.0,4,1,2024-07-20 04:30:01,c42334ae11bd6e373fa9fec6f52302a2,66.8.131.197,Mozilla/5.0 (Macintosh; Intel Mac OS X 10.15; rv:128.0) Gecko/20100101 Firefox/128.0,Macintosh,Firefox,128.0,OS X,10.15,https://app.prolific.com/,"en-US,en;q=0.5",d8kvl9z75,6667385b5787cbf400b73b25,,,,,,,debrief,,,
22011,"{""Q0"":""d8kvl9z75""}",survey-text,35,456109,0.0-35.0,4,1,2024-07-20 04:30:01,c42334ae11bd6e373fa9fec6f52302a2,66.8.131.197,Mozilla/5.0 (Macintosh; Intel Mac OS X 10.15; rv:128.0) Gecko/20100101 Firefox/128.0,Macintosh,Firefox,128.0,OS X,10.15,https://app.prolific.com/,"en-US,en;q=0.5",d8kvl9z75,6667385b5787cbf400b73b25,,,,,,,,,,
3700,"{""prolific_id"":""669aab18b7f156b93c657214""}",survey-text,0,3715,0.0-0.0,10,1,2024-07-20 04:33:19,c42334ae11bd6e373fa9fec6f52302a2,73.224.171.81,"Mozilla/5.0 (Windows NT 10.0; Win64; x64) AppleWebKit/537.36 (KHTML, like Gecko) Chrome/126.0.0.0 Safari/537.36",WebKit,Chrome,126.0.0.0,Windows,10.0,https://app.prolific.com/,"en-US,en;q=0.9",mx8ybxtmb,669aab18b7f156b93c657214,,,,,,,,,,
,,preload,1,4705,0.0-1.0,10,1,2024-07-20 04:33:19,c42334ae11bd6e373fa9fec6f52302a2,73.224.171.81,"Mozilla/5.0 (Windows NT 10.0; Win64; x64) AppleWebKit/537.36 (KHTML, like Gecko) Chrome/126.0.0.0 Safari/537.36",WebKit,Chrome,126.0.0.0,Windows,10.0,https://app.prolific.com/,"en-US,en;q=0.9",mx8ybxtmb,669aab18b7f156b93c657214,true,false,[],[],[],,,,,
4239, ,html-keyboard-response,2,8945,0.0-2.0,10,1,2024-07-20 04:33:19,c42334ae11bd6e373fa9fec6f52302a2,73.224.171.81,"Mozilla/5.0 (Windows NT 10.0; Win64; x64) AppleWebKit/537.36 (KHTML, like Gecko) Chrome/126.0.0.0 Safari/537.36",WebKit,Chrome,126.0.0.0,Windows,10.0,https://app.prolific.com/,"en-US,en;q=0.9",mx8ybxtmb,669aab18b7f156b93c657214,,,,,,"<p style=""text-align:center;width:700px;""> Welcome to the experiment! This study takes most people around 10 minutes to complete. Please complete it in one sitting.</p>",,,,
32781,y,html-keyboard-response,3,41729,0.0-3.0,10,1,2024-07-20 04:33:19,c42334ae11bd6e373fa9fec6f52302a2,73.224.171.81,"Mozilla/5.0 (Windows NT 10.0; Win64; x64) AppleWebKit/537.36 (KHTML, like Gecko) Chrome/126.0.0.0 Safari/537.36",WebKit,Chrome,126.0.0.0,Windows,10.0,https://app.prolific.com/,"en-US,en;q=0.9",mx8ybxtmb,669aab18b7f156b93c657214,,,,,,"<p style = ""font-size:16px;"">MIT Computational Cognitive Science Lab</p><h4>Press the 'y' key to consent.</h4><div style = ""background-color:#f2f2f2;""><h3>Informed Consent Form</h3><div style=""text-align:left;width:700px;""><p style = ""font-size:16px;"">In this study, you will be asked to read a set of instructions that describe a particular scenario, and you will then be asked to perform a simple task relating to that scenario. There will also be comprehension and attention checks. Participants who do not answer these checks correctly cannot be approved. In order to get credit for this study, you must read all the questions fully and answer honestly. You may only complete this study once. If you complete this study multiple times, you will be rejected.</p><p style = ""font-size:16px;"">This study is part of a MIT scientific research project. Your decision to complete this study is voluntary. There is no way for us to identify you. The only information we will have, in addition to your responses, is the time at which you completed the survey. The results of the research may be presented at scientific meetings or published in scientific journals. Pressing the ""Y"" key indicates that you are at least 18 years of age, and agree to complete this study voluntarily. Press the ""Y"" key to confirm your agreement and continue.</p></div>",,,,
54968,"{""instructions1"":""medium-sized town""}",survey-text,4,96720,0.0-4.0,10,1,2024-07-20 04:33:19,c42334ae11bd6e373fa9fec6f52302a2,73.224.171.81,"Mozilla/5.0 (Windows NT 10.0; Win64; x64) AppleWebKit/537.36 (KHTML, like Gecko) Chrome/126.0.0.0 Safari/537.36",WebKit,Chrome,126.0.0.0,Windows,10.0,https://app.prolific.com/,"en-US,en;q=0.9",mx8ybxtmb,669aab18b7f156b93c657214,,,,,,,instructions,,,
17235,"{""instructions2"":""Yes""}",survey-text,5,113960,0.0-5.0,10,1,2024-07-20 04:33:19,c42334ae11bd6e373fa9fec6f52302a2,73.224.171.81,"Mozilla/5.0 (Windows NT 10.0; Win64; x64) AppleWebKit/537.36 (KHTML, like Gecko) Chrome/126.0.0.0 Safari/537.36",WebKit,Chrome,126.0.0.0,Windows,10.0,https://app.prolific.com/,"en-US,en;q=0.9",mx8ybxtmb,669aab18b7f156b93c657214,,,,,,,instructions,,,
43300,"{""map_attention"":""Maps showing a small city, park, and destinations"",""squares_attention"":""Two terrains (grass and sidewalk) and three destinations (urgent care, bus stop, coffee shop)"",""answer_attention"":""Based on your own best judgment based on the map that you see, as well as your <i>own</i> common sense intuitions about towns and these kinds of destinations in general.""}",survey-multi-choice,6,157265,0.0-6.0,10,1,2024-07-20 04:33:19,c42334ae11bd6e373fa9fec6f52302a2,73.224.171.81,"Mozilla/5.0 (Windows NT 10.0; Win64; x64) AppleWebKit/537.36 (KHTML, like Gecko) Chrome/126.0.0.0 Safari/537.36",WebKit,Chrome,126.0.0.0,Windows,10.0,https://app.prolific.com/,"en-US,en;q=0.9",mx8ybxtmb,669aab18b7f156b93c657214,,,,,,,,"[0,1,2]",,
13743,100,html-slider-response,7,171011,0.0-7.0,10,1,2024-07-20 04:33:19,c42334ae11bd6e373fa9fec6f52302a2,73.224.171.81,"Mozilla/5.0 (Windows NT 10.0; Win64; x64) AppleWebKit/537.36 (KHTML, like Gecko) Chrome/126.0.0.0 Safari/537.36",WebKit,Chrome,126.0.0.0,Windows,10.0,https://app.prolific.com/,"en-US,en;q=0.9",mx8ybxtmb,669aab18b7f156b93c657214,,,,,,<div style='display:flex; justify-content:center; align-items:center;'><img src='img/map1_hospital_grass_shortest.png' style='width:600px; height:auto;' /></div>,image_trial,,50,img/map1_hospital_grass_shortest.png
6296,37,html-slider-response,8,177309,0.0-8.0,10,1,2024-07-20 04:33:19,c42334ae11bd6e373fa9fec6f52302a2,73.224.171.81,"Mozilla/5.0 (Windows NT 10.0; Win64; x64) AppleWebKit/537.36 (KHTML, like Gecko) Chrome/126.0.0.0 Safari/537.36",WebKit,Chrome,126.0.0.0,Windows,10.0,https://app.prolific.com/,"en-US,en;q=0.9",mx8ybxtmb,669aab18b7f156b93c657214,,,,,,<div style='display:flex; justify-content:center; align-items:center;'><img src='img/map2_bus_grass_wandering.png' style='width:600px; height:auto;' /></div>,image_trial,,50,img/map2_bus_grass_wandering.png
5044,100,html-slider-response,9,182354,0.0-9.0,10,1,2024-07-20 04:33:19,c42334ae11bd6e373fa9fec6f52302a2,73.224.171.81,"Mozilla/5.0 (Windows NT 10.0; Win64; x64) AppleWebKit/537.36 (KHTML, like Gecko) Chrome/126.0.0.0 Safari/537.36",WebKit,Chrome,126.0.0.0,Windows,10.0,https://app.prolific.com/,"en-US,en;q=0.9",mx8ybxtmb,669aab18b7f156b93c657214,,,,,,<div style='display:flex; justify-content:center; align-items:center;'><img src='img/map2_hospital_grass_shortest.png' style='width:600px; height:auto;' /></div>,image_trial,,50,img/map2_hospital_grass_shortest.png
5953,24,html-slider-response,10,188308,0.0-10.0,10,1,2024-07-20 04:33:19,c42334ae11bd6e373fa9fec6f52302a2,73.224.171.81,"Mozilla/5.0 (Windows NT 10.0; Win64; x64) AppleWebKit/537.36 (KHTML, like Gecko) Chrome/126.0.0.0 Safari/537.36",WebKit,Chrome,126.0.0.0,Windows,10.0,https://app.prolific.com/,"en-US,en;q=0.9",mx8ybxtmb,669aab18b7f156b93c657214,,,,,,<div style='display:flex; justify-content:center; align-items:center;'><img src='img/map3_coffee_grass_wandering.png' style='width:600px; height:auto;' /></div>,image_trial,,50,img/map3_coffee_grass_wandering.png
5408,100,html-slider-response,11,193717,0.0-11.0,10,1,2024-07-20 04:33:19,c42334ae11bd6e373fa9fec6f52302a2,73.224.171.81,"Mozilla/5.0 (Windows NT 10.0; Win64; x64) AppleWebKit/537.36 (KHTML, like Gecko) Chrome/126.0.0.0 Safari/537.36",WebKit,Chrome,126.0.0.0,Windows,10.0,https://app.prolific.com/,"en-US,en;q=0.9",mx8ybxtmb,669aab18b7f156b93c657214,,,,,,<div style='display:flex; justify-content:center; align-items:center;'><img src='img/map2_bus_sidewalk_shortest.png' style='width:600px; height:auto;' /></div>,image_trial,,50,img/map2_bus_sidewalk_shortest.png
5282,23,html-slider-response,12,199000,0.0-12.0,10,1,2024-07-20 04:33:19,c42334ae11bd6e373fa9fec6f52302a2,73.224.171.81,"Mozilla/5.0 (Windows NT 10.0; Win64; x64) AppleWebKit/537.36 (KHTML, like Gecko) Chrome/126.0.0.0 Safari/537.36",WebKit,Chrome,126.0.0.0,Windows,10.0,https://app.prolific.com/,"en-US,en;q=0.9",mx8ybxtmb,669aab18b7f156b93c657214,,,,,,<div style='display:flex; justify-content:center; align-items:center;'><img src='img/map2_bus_grass_shortest.png' style='width:600px; height:auto;' /></div>,image_trial,,50,img/map2_bus_grass_shortest.png
5669,100,html-slider-response,13,204670,0.0-13.0,10,1,2024-07-20 04:33:19,c42334ae11bd6e373fa9fec6f52302a2,73.224.171.81,"Mozilla/5.0 (Windows NT 10.0; Win64; x64) AppleWebKit/537.36 (KHTML, like Gecko) Chrome/126.0.0.0 Safari/537.36",WebKit,Chrome,126.0.0.0,Windows,10.0,https://app.prolific.com/,"en-US,en;q=0.9",mx8ybxtmb,669aab18b7f156b93c657214,,,,,,<div style='display:flex; justify-content:center; align-items:center;'><img src='img/map1_hospital_sidewalk_shortest.png' style='width:600px; height:auto;' /></div>,image_trial,,50,img/map1_hospital_sidewalk_shortest.png
7405,100,html-slider-response,14,212076,0.0-14.0,10,1,2024-07-20 04:33:19,c42334ae11bd6e373fa9fec6f52302a2,73.224.171.81,"Mozilla/5.0 (Windows NT 10.0; Win64; x64) AppleWebKit/537.36 (KHTML, like Gecko) Chrome/126.0.0.0 Safari/537.36",WebKit,Chrome,126.0.0.0,Windows,10.0,https://app.prolific.com/,"en-US,en;q=0.9",mx8ybxtmb,669aab18b7f156b93c657214,,,,,,<div style='display:flex; justify-content:center; align-items:center;'><img src='img/map3_bus_sidewalk_shortest.png' style='width:600px; height:auto;' /></div>,image_trial,,50,img/map3_bus_sidewalk_shortest.png
3681,20,html-slider-response,15,215758,0.0-15.0,10,1,2024-07-20 04:33:19,c42334ae11bd6e373fa9fec6f52302a2,73.224.171.81,"Mozilla/5.0 (Windows NT 10.0; Win64; x64) AppleWebKit/537.36 (KHTML, like Gecko) Chrome/126.0.0.0 Safari/537.36",WebKit,Chrome,126.0.0.0,Windows,10.0,https://app.prolific.com/,"en-US,en;q=0.9",mx8ybxtmb,669aab18b7f156b93c657214,,,,,,<div style='display:flex; justify-content:center; align-items:center;'><img src='img/map2_coffee_grass_wandering.png' style='width:600px; height:auto;' /></div>,image_trial,,50,img/map2_coffee_grass_wandering.png
8531,25,html-slider-response,16,224291,0.0-16.0,10,1,2024-07-20 04:33:19,c42334ae11bd6e373fa9fec6f52302a2,73.224.171.81,"Mozilla/5.0 (Windows NT 10.0; Win64; x64) AppleWebKit/537.36 (KHTML, like Gecko) Chrome/126.0.0.0 Safari/537.36",WebKit,Chrome,126.0.0.0,Windows,10.0,https://app.prolific.com/,"en-US,en;q=0.9",mx8ybxtmb,669aab18b7f156b93c657214,,,,,,<div style='display:flex; justify-content:center; align-items:center;'><img src='img/map3_coffee_grass_shortest.png' style='width:600px; height:auto;' /></div>,image_trial,,50,img/map3_coffee_grass_shortest.png
3753,74,html-slider-response,17,228045,0.0-17.0,10,1,2024-07-20 04:33:19,c42334ae11bd6e373fa9fec6f52302a2,73.224.171.81,"Mozilla/5.0 (Windows NT 10.0; Win64; x64) AppleWebKit/537.36 (KHTML, like Gecko) Chrome/126.0.0.0 Safari/537.36",WebKit,Chrome,126.0.0.0,Windows,10.0,https://app.prolific.com/,"en-US,en;q=0.9",mx8ybxtmb,669aab18b7f156b93c657214,,,,,,<div style='display:flex; justify-content:center; align-items:center;'><img src='img/map3_hospital_grass_wandering.png' style='width:600px; height:auto;' /></div>,image_trial,,50,img/map3_hospital_grass_wandering.png
3258,25,html-slider-response,18,231304,0.0-18.0,10,1,2024-07-20 04:33:19,c42334ae11bd6e373fa9fec6f52302a2,73.224.171.81,"Mozilla/5.0 (Windows NT 10.0; Win64; x64) AppleWebKit/537.36 (KHTML, like Gecko) Chrome/126.0.0.0 Safari/537.36",WebKit,Chrome,126.0.0.0,Windows,10.0,https://app.prolific.com/,"en-US,en;q=0.9",mx8ybxtmb,669aab18b7f156b93c657214,,,,,,<div style='display:flex; justify-content:center; align-items:center;'><img src='img/map3_bus_grass_wandering.png' style='width:600px; height:auto;' /></div>,image_trial,,50,img/map3_bus_grass_wandering.png
3858,100,html-slider-response,19,235163,0.0-19.0,10,1,2024-07-20 04:33:19,c42334ae11bd6e373fa9fec6f52302a2,73.224.171.81,"Mozilla/5.0 (Windows NT 10.0; Win64; x64) AppleWebKit/537.36 (KHTML, like Gecko) Chrome/126.0.0.0 Safari/537.36",WebKit,Chrome,126.0.0.0,Windows,10.0,https://app.prolific.com/,"en-US,en;q=0.9",mx8ybxtmb,669aab18b7f156b93c657214,,,,,,<div style='display:flex; justify-content:center; align-items:center;'><img src='img/map1_bus_sidewalk_shortest.png' style='width:600px; height:auto;' /></div>,image_trial,,50,img/map1_bus_sidewalk_shortest.png
4471,7,html-slider-response,20,239635,0.0-20.0,10,1,2024-07-20 04:33:19,c42334ae11bd6e373fa9fec6f52302a2,73.224.171.81,"Mozilla/5.0 (Windows NT 10.0; Win64; x64) AppleWebKit/537.36 (KHTML, like Gecko) Chrome/126.0.0.0 Safari/537.36",WebKit,Chrome,126.0.0.0,Windows,10.0,https://app.prolific.com/,"en-US,en;q=0.9",mx8ybxtmb,669aab18b7f156b93c657214,,,,,,<div style='display:flex; justify-content:center; align-items:center;'><img src='img/map1_bus_grass_shortest.png' style='width:600px; height:auto;' /></div>,image_trial,,50,img/map1_bus_grass_shortest.png
5301,68,html-slider-response,21,244937,0.0-21.0,10,1,2024-07-20 04:33:19,c42334ae11bd6e373fa9fec6f52302a2,73.224.171.81,"Mozilla/5.0 (Windows NT 10.0; Win64; x64) AppleWebKit/537.36 (KHTML, like Gecko) Chrome/126.0.0.0 Safari/537.36",WebKit,Chrome,126.0.0.0,Windows,10.0,https://app.prolific.com/,"en-US,en;q=0.9",mx8ybxtmb,669aab18b7f156b93c657214,,,,,,<div style='display:flex; justify-content:center; align-items:center;'><img src='img/map1_hospital_grass_wandering.png' style='width:600px; height:auto;' /></div>,image_trial,,50,img/map1_hospital_grass_wandering.png
3362,0,html-slider-response,22,248301,0.0-22.0,10,1,2024-07-20 04:33:19,c42334ae11bd6e373fa9fec6f52302a2,73.224.171.81,"Mozilla/5.0 (Windows NT 10.0; Win64; x64) AppleWebKit/537.36 (KHTML, like Gecko) Chrome/126.0.0.0 Safari/537.36",WebKit,Chrome,126.0.0.0,Windows,10.0,https://app.prolific.com/,"en-US,en;q=0.9",mx8ybxtmb,669aab18b7f156b93c657214,,,,,,<div style='display:flex; justify-content:center; align-items:center;'><img src='img/map1_coffee_grass_shortest.png' style='width:600px; height:auto;' /></div>,image_trial,,50,img/map1_coffee_grass_shortest.png
3036,100,html-slider-response,23,251341,0.0-23.0,10,1,2024-07-20 04:33:19,c42334ae11bd6e373fa9fec6f52302a2,73.224.171.81,"Mozilla/5.0 (Windows NT 10.0; Win64; x64) AppleWebKit/537.36 (KHTML, like Gecko) Chrome/126.0.0.0 Safari/537.36",WebKit,Chrome,126.0.0.0,Windows,10.0,https://app.prolific.com/,"en-US,en;q=0.9",mx8ybxtmb,669aab18b7f156b93c657214,,,,,,<div style='display:flex; justify-content:center; align-items:center;'><img src='img/map3_hospital_grass_shortest.png' style='width:600px; height:auto;' /></div>,image_trial,,50,img/map3_hospital_grass_shortest.png
4818,100,html-slider-response,24,256160,0.0-24.0,10,1,2024-07-20 04:33:19,c42334ae11bd6e373fa9fec6f52302a2,73.224.171.81,"Mozilla/5.0 (Windows NT 10.0; Win64; x64) AppleWebKit/537.36 (KHTML, like Gecko) Chrome/126.0.0.0 Safari/537.36",WebKit,Chrome,126.0.0.0,Windows,10.0,https://app.prolific.com/,"en-US,en;q=0.9",mx8ybxtmb,669aab18b7f156b93c657214,,,,,,<div style='display:flex; justify-content:center; align-items:center;'><img src='img/map2_hospital_grass_wandering.png' style='width:600px; height:auto;' /></div>,image_trial,,50,img/map2_hospital_grass_wandering.png
3332,12,html-slider-response,25,259494,0.0-25.0,10,1,2024-07-20 04:33:19,c42334ae11bd6e373fa9fec6f52302a2,73.224.171.81,"Mozilla/5.0 (Windows NT 10.0; Win64; x64) AppleWebKit/537.36 (KHTML, like Gecko) Chrome/126.0.0.0 Safari/537.36",WebKit,Chrome,126.0.0.0,Windows,10.0,https://app.prolific.com/,"en-US,en;q=0.9",mx8ybxtmb,669aab18b7f156b93c657214,,,,,,<div style='display:flex; justify-content:center; align-items:center;'><img src='img/map1_coffee_grass_wandering.png' style='width:600px; height:auto;' /></div>,image_trial,,50,img/map1_coffee_grass_wandering.png
5855,30,html-slider-response,26,265350,0.0-26.0,10,1,2024-07-20 04:33:19,c42334ae11bd6e373fa9fec6f52302a2,73.224.171.81,"Mozilla/5.0 (Windows NT 10.0; Win64; x64) AppleWebKit/537.36 (KHTML, like Gecko) Chrome/126.0.0.0 Safari/537.36",WebKit,Chrome,126.0.0.0,Windows,10.0,https://app.prolific.com/,"en-US,en;q=0.9",mx8ybxtmb,669aab18b7f156b93c657214,,,,,,<div style='display:flex; justify-content:center; align-items:center;'><img src='img/map3_bus_grass_shortest.png' style='width:600px; height:auto;' /></div>,image_trial,,50,img/map3_bus_grass_shortest.png
3040,100,html-slider-response,27,268391,0.0-27.0,10,1,2024-07-20 04:33:19,c42334ae11bd6e373fa9fec6f52302a2,73.224.171.81,"Mozilla/5.0 (Windows NT 10.0; Win64; x64) AppleWebKit/537.36 (KHTML, like Gecko) Chrome/126.0.0.0 Safari/537.36",WebKit,Chrome,126.0.0.0,Windows,10.0,https://app.prolific.com/,"en-US,en;q=0.9",mx8ybxtmb,669aab18b7f156b93c657214,,,,,,<div style='display:flex; justify-content:center; align-items:center;'><img src='img/map3_coffee_sidewalk_shortest.png' style='width:600px; height:auto;' /></div>,image_trial,,50,img/map3_coffee_sidewalk_shortest.png
4392,20,html-slider-response,28,272784,0.0-28.0,10,1,2024-07-20 04:33:19,c42334ae11bd6e373fa9fec6f52302a2,73.224.171.81,"Mozilla/5.0 (Windows NT 10.0; Win64; x64) AppleWebKit/537.36 (KHTML, like Gecko) Chrome/126.0.0.0 Safari/537.36",WebKit,Chrome,126.0.0.0,Windows,10.0,https://app.prolific.com/,"en-US,en;q=0.9",mx8ybxtmb,669aab18b7f156b93c657214,,,,,,<div style='display:flex; justify-content:center; align-items:center;'><img src='img/map2_coffee_grass_shortest.png' style='width:600px; height:auto;' /></div>,image_trial,,50,img/map2_coffee_grass_shortest.png
3562,100,html-slider-response,29,276348,0.0-29.0,10,1,2024-07-20 04:33:19,c42334ae11bd6e373fa9fec6f52302a2,73.224.171.81,"Mozilla/5.0 (Windows NT 10.0; Win64; x64) AppleWebKit/537.36 (KHTML, like Gecko) Chrome/126.0.0.0 Safari/537.36",WebKit,Chrome,126.0.0.0,Windows,10.0,https://app.prolific.com/,"en-US,en;q=0.9",mx8ybxtmb,669aab18b7f156b93c657214,,,,,,<div style='display:flex; justify-content:center; align-items:center;'><img src='img/map2_coffee_sidewalk_shortest.png' style='width:600px; height:auto;' /></div>,image_trial,,50,img/map2_coffee_sidewalk_shortest.png
2850,100,html-slider-response,30,279199,0.0-30.0,10,1,2024-07-20 04:33:19,c42334ae11bd6e373fa9fec6f52302a2,73.224.171.81,"Mozilla/5.0 (Windows NT 10.0; Win64; x64) AppleWebKit/537.36 (KHTML, like Gecko) Chrome/126.0.0.0 Safari/537.36",WebKit,Chrome,126.0.0.0,Windows,10.0,https://app.prolific.com/,"en-US,en;q=0.9",mx8ybxtmb,669aab18b7f156b93c657214,,,,,,<div style='display:flex; justify-content:center; align-items:center;'><img src='img/map1_coffee_sidewalk_shortest.png' style='width:600px; height:auto;' /></div>,image_trial,,50,img/map1_coffee_sidewalk_shortest.png
3566,28,html-slider-response,31,282767,0.0-31.0,10,1,2024-07-20 04:33:19,c42334ae11bd6e373fa9fec6f52302a2,73.224.171.81,"Mozilla/5.0 (Windows NT 10.0; Win64; x64) AppleWebKit/537.36 (KHTML, like Gecko) Chrome/126.0.0.0 Safari/537.36",WebKit,Chrome,126.0.0.0,Windows,10.0,https://app.prolific.com/,"en-US,en;q=0.9",mx8ybxtmb,669aab18b7f156b93c657214,,,,,,<div style='display:flex; justify-content:center; align-items:center;'><img src='img/map1_bus_grass_wandering.png' style='width:600px; height:auto;' /></div>,image_trial,,50,img/map1_bus_grass_wandering.png
3488,100,html-slider-response,32,286256,0.0-32.0,10,1,2024-07-20 04:33:19,c42334ae11bd6e373fa9fec6f52302a2,73.224.171.81,"Mozilla/5.0 (Windows NT 10.0; Win64; x64) AppleWebKit/537.36 (KHTML, like Gecko) Chrome/126.0.0.0 Safari/537.36",WebKit,Chrome,126.0.0.0,Windows,10.0,https://app.prolific.com/,"en-US,en;q=0.9",mx8ybxtmb,669aab18b7f156b93c657214,,,,,,<div style='display:flex; justify-content:center; align-items:center;'><img src='img/map2_hospital_sidewalk_shortest.png' style='width:600px; height:auto;' /></div>,image_trial,,50,img/map2_hospital_sidewalk_shortest.png
2984,100,html-slider-response,33,289242,0.0-33.0,10,1,2024-07-20 04:33:19,c42334ae11bd6e373fa9fec6f52302a2,73.224.171.81,"Mozilla/5.0 (Windows NT 10.0; Win64; x64) AppleWebKit/537.36 (KHTML, like Gecko) Chrome/126.0.0.0 Safari/537.36",WebKit,Chrome,126.0.0.0,Windows,10.0,https://app.prolific.com/,"en-US,en;q=0.9",mx8ybxtmb,669aab18b7f156b93c657214,,,,,,<div style='display:flex; justify-content:center; align-items:center;'><img src='img/map3_hospital_sidewalk_shortest.png' style='width:600px; height:auto;' /></div>,image_trial,,50,img/map3_hospital_sidewalk_shortest.png
